{
  "resourceType": "Bundle",
  "id": "BundleExample1",
  "identifier": {
    "system": "urn:ietf:rfc:3986",
    "value": "urn:uuid:ba2d1426-ed83-4d55-8032-c6345382c92b"
  },
  "entry": [
    {
      "fullUrl": "http://example.org/Composition/CompositionExample1",
      "resource": {
        "resourceType": "Composition",
        "id": "CompositionExample1",
        "author": [
          {
            "reference": "Practitioner/PractitionerExample"
          }
        ],
        "section": [
          {
            "entry": [
              {
                "reference": "Observation/ObservationExample/_history/3"
              },
              {
                "reference": "Observation/ObservationExample"
              }
            ]
          }
        ],
        "status": "final",
        "type": {
          "coding": [
            {
              "code": "18776-5",
              "system": "http://loinc.org",
              "display": "Plan of care note"
            }
          ]
        },
        "subject": {
          "reference": "Patient/PatientExample"
        },
        "date": "2024-12-01",
        "title": "Document example"
      }
    },
    {
      "fullUrl": "http://example.org/Observation/ObservationExample",
      "resource": {
        "resourceType": "Observation",
        "id": "ObservationExample",
        "meta": {
          "versionId": "1",
          "lastUpdated": "2024-11-30T13:28:17.239+02:00"
        },
        "category": [
          {
            "coding": [
              {
                "code": "vital-signs",
                "system": "http://terminology.hl7.org/CodeSystem/observation-category"
              }
            ]
          }
        ],
        "performer": [
          {
            "reference": "Practitioner/PractitionerExample"
          }
        ],
        "status": "final",
        "code": {
          "coding": [
            {
              "code": "8302-2",
              "system": "http://loinc.org",
              "display": "Body height"
            }
          ]
        },
        "subject": {
          "reference": "Patient/PatientExample"
        },
        "effectiveDateTime": "2024-11-30",
        "valueQuantity": {
          "value": 170,
          "code": "cm",
          "system": "http://unitsofmeasure.org",
          "unit": "cm"
        }
      }
    },
    {
      "fullUrl": "http://example.org/Observation/ObservationExample",
      "resource": {
        "resourceType": "Observation",
        "id": "ObservationExample",
        "meta": {
          "versionId": "2",
          "lastUpdated": "2024-12-01T13:28:17.239+02:00"
        },
        "category": [
          {
            "coding": [
              {
                "code": "vital-signs",
                "system": "http://terminology.hl7.org/CodeSystem/observation-category"
              }
            ]
          }
        ],
        "performer": [
          {
            "reference": "Practitioner/PractitionerExample"
          }
        ],
        "status": "final",
        "code": {
          "coding": [
            {
              "code": "8302-2",
              "system": "http://loinc.org",
              "display": "Body height"
            }
          ]
        },
        "subject": {
          "reference": "Patient/PatientExample"
        },
        "effectiveDateTime": "2024-11-30",
        "valueQuantity": {
          "value": 170,
          "code": "cm",
          "system": "http://unitsofmeasure.org",
          "unit": "cm"
        }
      }
    },
    {
      "fullUrl": "http://example.org/Patient/PatientExample",
      "resource": {
        "resourceType": "Patient",
        "id": "PatientExample",
        "name": [
          {
            "given": ["James"],
            "family": "Toad"
          }
        ]
      }
    },
    {
      "fullUrl": "http://example.org/Practitioner/PractitionerExample",
      "resource": {
        "resourceType": "Practitioner",
        "id": "PractitionerExample",
        "name": [
          {
            "given": ["Gina"],
            "family": "Pond"
          }
        ]
      }
    }
  ],
  "type": "document",
  "timestamp": "2024-12-01T13:28:17.239+02:00"
}
