{
  "resourceType" : "Bundle",
  "id" : "3a06c5b9-bfab-41c0-b68a-08a97280cf61",
  "meta" : {
    "profile" : [
      "http://dev.gene.com/fhir/uapi/StructureDefinition/uapi-as-enrollment-bundle"
    ]
  },
  "identifier" : {
    "type" : {
      "coding" : [
        {
          "system" : "http://terminology.hl7.org/CodeSystem/v2-0203",
          "code" : "RI",
          "display" : "Resource identifier"
        }
      ]
    },
    "system" : "http://dev.gene.com/fhir/uapi/enrollment/bundle-enrollment-id",
    "value" : "30eec1b3-d067-40ee-8af5-9e7c37130b14",
    "assigner" : {
      "display" : "Genentech Mulesoft"
    }
  },
  "type" : "message",
  "timestamp" : "2020-03-11T08:10:13-05:00",
  "entry" : [
    {
      "fullUrl" : "urn:uuid:eb5eb40b-78e8-4a52-903a-0348c1eac387",
      "resource" : {
        "resourceType" : "MessageHeader",
        "id" : "eb5eb40b-78e8-4a52-903a-0348c1eac387",
        "meta" : {
          "profile" : [
            "http://dev.gene.com/fhir/uapi/StructureDefinition/uapi-messageheader"
          ]
        },
        "text" : {
          "status" : "extensions",
          "div" : "<div xmlns=\"http://www.w3.org/1999/xhtml\"><p><b>Generated Narrative</b></p><p><b>UAPI MessageHeader Timestamp</b>: Mar 11, 2020, 6:10:13 AM</p><p><b>event</b>: <span title=\"{http://terminology.gene.com/fhir/usix/uapi/CodeSystem/uapi-event-type enrollment-with-consent}\">enrollment-with-consent</span></p><h3>Destinations</h3><table class=\"grid\"><tr><td>-</td><td><b>Name</b></td><td><b>Endpoint</b></td></tr><tr><td>*</td><td>UAPI-ENR-V2.0</td><td><a href=\"https://test-us-e1.apis.roche.com/pharma-cmg-ehr-fhir-exp-test/v2/enrollment\">https://test-us-e1.apis.roche.com/pharma-cmg-ehr-fhir-exp-test/v2/enrollment</a></td></tr></table><p><b>sender</b>: <a href=\"#Organization_01c31a2f-321d-4c6e-8349-206af8a88088\">See above (Organization/01c31a2f-321d-4c6e-8349-206af8a88088)</a></p><h3>Sources</h3><table class=\"grid\"><tr><td>-</td><td><b>Name</b></td><td><b>Endpoint</b></td></tr><tr><td>*</td><td>Vendor_AB</td><td><a href=\"http://vendor.com/fhir/enrollmentID/ENR-00001\">http://vendor.com/fhir/enrollmentID/ENR-00001</a></td></tr></table><p><b>focus</b>: <a href=\"#List_7e8a5789-f41a-496f-94ad-fef0999bbcbe\">See above (List/7e8a5789-f41a-496f-94ad-fef0999bbcbe)</a></p></div>"
        },
        "extension" : [
          {
            "url" : "http://dev.gene.com/fhir/uapi/StructureDefinition/message-timestamp",
            "valueDateTime" : "2020-03-11T08:10:13-05:00"
          }
        ],
        "eventCoding" : {
          "system" : "http://terminology.gene.com/fhir/usix/uapi/CodeSystem/uapi-event-type",
          "code" : "enrollment-with-consent"
        },
        "destination" : [
          {
            "name" : "UAPI-ENR-V2.0",
            "endpoint" : "https://test-us-e1.apis.roche.com/pharma-cmg-ehr-fhir-exp-test/v2/enrollment"
          }
        ],
        "sender" : {
          "reference" : "urn:uuid:01c31a2f-321d-4c6e-8349-206af8a88088",
          "type" : "Organization"
        },
        "source" : {
          "name" : "Vendor_AB",
          "endpoint" : "http://vendor.com/fhir/enrollmentID/ENR-00001"
        },
        "focus" : [
          {
            "reference" : "urn:uuid:7e8a5789-f41a-496f-94ad-fef0999bbcbe",
            "type" : "List"
          }
        ]
      }
    },
    {
      "fullUrl" : "urn:uuid:7e8a5789-f41a-496f-94ad-fef0999bbcbe",
      "resource" : {
        "resourceType" : "List",
        "id" : "7e8a5789-f41a-496f-94ad-fef0999bbcbe",
        "text" : {
          "status" : "generated",
          "div" : "<div xmlns=\"http://www.w3.org/1999/xhtml\"><p><b>Generated Narrative</b></p><p><b>status</b>: current</p><p><b>mode</b>: changes</p><p><b>title</b>: messageContext</p><blockquote><p><b>entry</b></p><p><b>item</b>: <a href=\"#Patient_fc2e5a72-c363-4616-ae00-4ad25cbcb45c\">See above (Patient/fc2e5a72-c363-4616-ae00-4ad25cbcb45c)</a></p></blockquote><blockquote><p><b>entry</b></p><p><b>item</b>: <a href=\"#Organization_01c31a2f-321d-4c6e-8349-206af8a88088\">See above (Organization/01c31a2f-321d-4c6e-8349-206af8a88088)</a></p></blockquote><blockquote><p><b>entry</b></p><p><b>item</b>: <a href=\"#Practitioner_695d0991-5e03-46df-934a-85a28acd95c1\">See above (Practitioner/695d0991-5e03-46df-934a-85a28acd95c1)</a></p></blockquote><blockquote><p><b>entry</b></p><p><b>item</b>: <a href=\"#MedicationRequest_df610b38-2561-423c-b17a-36364f5a82c1\">See above (MedicationRequest/df610b38-2561-423c-b17a-36364f5a82c1)</a></p></blockquote><blockquote><p><b>entry</b></p><p><b>item</b>: <a href=\"#QuestionnaireResponse_5342779a-184f-42ba-ab44-3a8e023979f7\">See above (QuestionnaireResponse/5342779a-184f-42ba-ab44-3a8e023979f7)</a></p></blockquote><blockquote><p><b>entry</b></p><p><b>item</b>: <a href=\"#Condition_bc20c5ea-f639-4221-ab61-ce75c5e64aba\">See above (Condition/bc20c5ea-f639-4221-ab61-ce75c5e64aba)</a></p></blockquote><blockquote><p><b>entry</b></p><p><b>item</b>: <a href=\"#Organization_d3637025-883d-4678-9e0a-1d243a338f9f\">See above (Organization/d3637025-883d-4678-9e0a-1d243a338f9f)</a></p></blockquote><blockquote><p><b>entry</b></p><p><b>item</b>: <a href=\"#Coverage_42b41bdb-1781-49aa-a091-78cdd92129df\">See above (Coverage/42b41bdb-1781-49aa-a091-78cdd92129df)</a></p></blockquote><blockquote><p><b>entry</b></p><p><b>item</b>: <a href=\"#Consent_1b53bfb2-1361-4906-acd8-35294d30273b\">See above (Consent/1b53bfb2-1361-4906-acd8-35294d30273b)</a></p></blockquote><blockquote><p><b>entry</b></p><p><b>item</b>: <a href=\"#Provenance_cb626b8a-4e0e-484b-b4fb-1f48fd318418\">See above (Provenance/cb626b8a-4e0e-484b-b4fb-1f48fd318418)</a></p></blockquote><blockquote><p><b>entry</b></p><p><b>item</b>: <a href=\"#ServiceRequest_212c57ad-45cd-4882-87e7-8415ded3db05\">See above (ServiceRequest/212c57ad-45cd-4882-87e7-8415ded3db05)</a></p></blockquote><blockquote><p><b>entry</b></p><p><b>item</b>: <a href=\"#ServiceRequest_1409c0e9-6b06-4de5-82e7-577516c866db\">See above (ServiceRequest/1409c0e9-6b06-4de5-82e7-577516c866db)</a></p></blockquote><blockquote><p><b>entry</b></p><p><b>item</b>: <a href=\"#RelatedPerson_4db51d32-65c3-4f8c-959e-0155c6d14545\">See above (RelatedPerson/4db51d32-65c3-4f8c-959e-0155c6d14545)</a></p></blockquote></div>"
        },
        "status" : "current",
        "mode" : "changes",
        "title" : "messageContext",
        "entry" : [
          {
            "item" : {
              "reference" : "urn:uuid:fc2e5a72-c363-4616-ae00-4ad25cbcb45c",
              "type" : "Patient"
            }
          },
          {
            "item" : {
              "reference" : "urn:uuid:01c31a2f-321d-4c6e-8349-206af8a88088",
              "type" : "Organization"
            }
          },
          {
            "item" : {
              "reference" : "urn:uuid:695d0991-5e03-46df-934a-85a28acd95c1",
              "type" : "Practitioner"
            }
          },
          {
            "item" : {
              "reference" : "urn:uuid:df610b38-2561-423c-b17a-36364f5a82c1",
              "type" : "MedicationRequest"
            }
          },
          {
            "item" : {
              "reference" : "urn:uuid:5342779a-184f-42ba-ab44-3a8e023979f7",
              "type" : "QuestionnaireResponse"
            }
          },
          {
            "item" : {
              "reference" : "urn:uuid:bc20c5ea-f639-4221-ab61-ce75c5e64aba",
              "type" : "Condition"
            }
          },
          {
            "item" : {
              "reference" : "urn:uuid:d3637025-883d-4678-9e0a-1d243a338f9f",
              "type" : "Organization"
            }
          },
          {
            "item" : {
              "reference" : "urn:uuid:42b41bdb-1781-49aa-a091-78cdd92129df",
              "type" : "Coverage"
            }
          },
          {
            "item" : {
              "reference" : "urn:uuid:1b53bfb2-1361-4906-acd8-35294d30273b",
              "type" : "Consent"
            }
          },
          {
            "item" : {
              "reference" : "urn:uuid:cb626b8a-4e0e-484b-b4fb-1f48fd318418",
              "type" : "Provenance"
            }
          },
          {
            "item" : {
              "reference" : "urn:uuid:212c57ad-45cd-4882-87e7-8415ded3db05",
              "type" : "ServiceRequest"
            }
          },
          {
            "item" : {
              "reference" : "urn:uuid:1409c0e9-6b06-4de5-82e7-577516c866db",
              "type" : "ServiceRequest"
            }
          },
          {
            "item" : {
              "reference" : "urn:uuid:4db51d32-65c3-4f8c-959e-0155c6d14545",
              "type" : "RelatedPerson"
            }
          }
        ]
      }
    },
    {
      "fullUrl" : "urn:uuid:fc2e5a72-c363-4616-ae00-4ad25cbcb45c",
      "resource" : {
        "resourceType" : "Patient",
        "id" : "fc2e5a72-c363-4616-ae00-4ad25cbcb45c",
        "meta" : {
          "profile" : [
            "http://dev.gene.com/fhir/uapi/StructureDefinition/uapi-patient"
          ]
        },
        "text" : {
          "status" : "generated",
          "div" : "<div xmlns=\"http://www.w3.org/1999/xhtml\"><p><b>Generated Narrative</b></p><p><b>identifier</b>: Patient internal identifier: 6bcd8467-0473-4836-9128-2e7972f23177 (OFFICIAL)</p><p><b>name</b>: Ryan Michaelson (OFFICIAL)</p><p><b>telecom</b>: ph: 1231231234(HOME), ph: 1234561234(MOBILE), <a href=\"mailto:bobster83@example.com\">bobster83@example.com</a></p><p><b>gender</b>: male</p><p><b>birthDate</b>: 1972-10-29</p><p><b>address</b>: 1234 Main St San Francisco CA 94105 US </p><h3>Communications</h3><table class=\"grid\"><tr><td>-</td><td><b>Language</b></td><td><b>Preferred</b></td></tr><tr><td>*</td><td><span title=\"Codes: {urn:ietf:bcp:47 en}\">English</span></td><td>true</td></tr></table><p><b>generalPractitioner</b>: <a href=\"#Practitioner_695d0991-5e03-46df-934a-85a28acd95c1\">See above (Practitioner/695d0991-5e03-46df-934a-85a28acd95c1)</a></p><p><b>managingOrganization</b>: <a href=\"#Organization_01c31a2f-321d-4c6e-8349-206af8a88088\">See above (Organization/01c31a2f-321d-4c6e-8349-206af8a88088)</a></p></div>"
        },
        "identifier" : [
          {
            "use" : "official",
            "type" : {
              "coding" : [
                {
                  "system" : "http://terminology.hl7.org/CodeSystem/v2-0203",
                  "code" : "PI",
                  "display" : "Patient internal identifier"
                }
              ]
            },
            "system" : "http://vendor.com/ab",
            "value" : "6bcd8467-0473-4836-9128-2e7972f23177",
            "assigner" : {
              "display" : "AB Vendor"
            }
          }
        ],
        "name" : [
          {
            "use" : "official",
            "family" : "Michaelson",
            "given" : [
              "Ryan"
            ]
          }
        ],
        "telecom" : [
          {
            "system" : "phone",
            "value" : "1231231234",
            "use" : "home",
            "rank" : 1
          },
          {
            "system" : "phone",
            "value" : "1234561234",
            "use" : "mobile",
            "rank" : 2
          },
          {
            "system" : "email",
            "value" : "bobster83@example.com",
            "use" : "home",
            "rank" : 3
          }
        ],
        "gender" : "male",
        "birthDate" : "1972-10-29",
        "address" : [
          {
            "line" : [
              "1234 Main St"
            ],
            "city" : "San Francisco",
            "state" : "CA",
            "postalCode" : "94105",
            "country" : "US"
          }
        ],
        "communication" : [
          {
            "language" : {
              "coding" : [
                {
                  "system" : "urn:ietf:bcp:47",
                  "code" : "en",
                  "display" : "English"
                }
              ]
            },
            "preferred" : true
          }
        ],
        "generalPractitioner" : [
          {
            "reference" : "urn:uuid:695d0991-5e03-46df-934a-85a28acd95c1",
			"type" : "practitioner"
          }
        ],
        "managingOrganization" : {
          "reference" : "urn:uuid:01c31a2f-321d-4c6e-8349-206af8a88088",
		  "type" : "organization"
        }
      }
    },
    {
      "fullUrl" : "urn:uuid:01c31a2f-321d-4c6e-8349-206af8a88088",
      "resource" : {
        "resourceType" : "Organization",
        "id" : "01c31a2f-321d-4c6e-8349-206af8a88088",
        "meta" : {
          "profile" : [
            "http://dev.gene.com/fhir/uapi/StructureDefinition/uapi-organization"
          ]
        },
        "text" : {
          "status" : "generated",
          "div" : "<div xmlns=\"http://www.w3.org/1999/xhtml\"><p><b>Generated Narrative</b></p><p><b>identifier</b>: id: HOSP-12345 (USUAL), id: Vendor_AB_HOSP-12345 (OFFICIAL)</p><p><b>type</b>: <span title=\"Codes: {http://terminology.hl7.org/CodeSystem/organization-type prov}\">Healthcare Provider</span></p><p><b>name</b>: Mid Atlantic Retina</p><p><b>telecom</b>: ph: -unknown-</p><p><b>address</b>: 8 Ranoldo Terrace Cherry Hill NJ 08034 US </p><h3>Contacts</h3><table class=\"grid\"><tr><td>-</td><td><b>Name</b></td><td><b>Telecom</b></td></tr><tr><td>*</td><td>Venus Yardav (OFFICIAL)</td><td>ph: 8882704882(WORK), fax: 8179974042(WORK)</td></tr></table></div>"
        },
        "identifier" : [
          {
            "use" : "usual",
            "system" : "http://vendor.com/ab",
            "value" : "HOSP-12345",
            "assigner" : {
              "display" : "AB Vendor"
            }
          },
          {
            "use" : "official",
            "system" : "http://dev.gene.com/fhir/mulesoft",
            "value" : "Vendor_AB_HOSP-12345",
            "assigner" : {
              "display" : "UAPI Experience API Mulesoft"
            }
          }
        ],
        "type" : [
          {
            "coding" : [
              {
                "system" : "http://terminology.hl7.org/CodeSystem/organization-type",
                "code" : "prov",
                "display" : "Healthcare Provider"
              }
            ]
          }
        ],
        "name" : "Mid Atlantic Retina",
        "telecom" : [
          {
            "system" : "phone"
          }
        ],
        "address" : [
          {
            "line" : [
              "8 Ranoldo Terrace"
            ],
            "city" : "Cherry Hill",
            "state" : "NJ",
            "postalCode" : "08034",
            "country" : "US"
          }
        ],
        "contact" : [
          {
            "name" : {
              "use" : "official",
              "family" : "Yardav",
              "given" : [
                "Venus"
              ]
            },
            "telecom" : [
              {
                "system" : "phone",
                "value" : "8882704882",
                "use" : "work",
                "rank" : 1
              },
              {
                "system" : "fax",
                "value" : "8179974042",
                "use" : "work",
                "rank" : 2
              }
            ]
          }
        ]
      }
    },
    {
      "fullUrl" : "urn:uuid:695d0991-5e03-46df-934a-85a28acd95c1",
      "resource" : {
        "resourceType" : "Practitioner",
        "id" : "695d0991-5e03-46df-934a-85a28acd95c1",
        "meta" : {
          "profile" : [
            "http://dev.gene.com/fhir/uapi/StructureDefinition/uapi-practitioner"
          ]
        },
        "text" : {
          "status" : "generated",
          "div" : "<div xmlns=\"http://www.w3.org/1999/xhtml\"><p><b>Generated Narrative</b></p><p><b>identifier</b>: Provider identifier: 1922071448 (OFFICIAL), Tax ID number: 00000000 (OFFICIAL), National provider identifier: 1234-ue3423f4 (OFFICIAL)</p><p><b>name</b>: MARISSA CRUZ (OFFICIAL)</p></div>"
        },
        "identifier" : [
          {
            "use" : "official",
            "type" : {
              "coding" : [
                {
                  "system" : "http://terminology.hl7.org/CodeSystem/v2-0203",
                  "code" : "PRN",
                  "display" : "Provider identifier"
                }
              ]
            },
            "system" : "http://hl7.org/fhir/sid/us-npi",
            "value" : "1922071448",
            "assigner" : {
              "display" : "Centers for Medicare & Medicaid Services"
            }
          },
          {
            "use" : "official",
            "type" : {
              "coding" : [
                {
                  "system" : "http://terminology.hl7.org/CodeSystem/v2-0203",
                  "code" : "TAX",
                  "display" : "Tax ID number"
                }
              ]
            },
            "system" : "http://hl7.org/fhir/sid/us-npi",
            "value" : "00000000"
          },
          {
            "use" : "official",
            "type" : {
              "coding" : [
                {
                  "system" : "http://terminology.hl7.org/CodeSystem/v2-0203",
                  "code" : "NPI",
                  "display" : "National provider identifier"
                }
              ]
            },
            "system" : "http://hl7.org/fhir/sid/us-npi",
            "value" : "1234-ue3423f4"
          }
        ],
        "name" : [
          {
            "use" : "official",
            "family" : "CRUZ",
            "given" : [
              "MARISSA"
            ]
          }
        ]
      }
    },
    {
      "fullUrl" : "urn:uuid:42b41bdb-1781-49aa-a091-78cdd92129df",
      "resource" : {
        "resourceType" : "Coverage",
        "id" : "42b41bdb-1781-49aa-a091-78cdd92129df",
        "meta" : {
          "profile" : [
            "http://dev.gene.com/fhir/uapi/StructureDefinition/uapi-coverage"
          ]
        },
        "text" : {
          "status" : "generated",
          "div" : "<div xmlns=\"http://www.w3.org/1999/xhtml\"><p><b>Generated Narrative</b></p><p><b>status</b>: active</p><p><b>type</b>: <span title=\"Codes: {http://terminology.hl7.org/CodeSystem/v3-ActCode HIP}\">health insurance plan policy</span></p><p><b>subscriber</b>: <a href=\"#RelatedPerson_4db51d32-65c3-4f8c-959e-0155c6d14545\">See above (RelatedPerson/4db51d32-65c3-4f8c-959e-0155c6d14545)</a></p><p><b>subscriberId</b>: 4353</p><p><b>beneficiary</b>: <a href=\"#Patient_fc2e5a72-c363-4616-ae00-4ad25cbcb45c\">See above (Patient/fc2e5a72-c363-4616-ae00-4ad25cbcb45c)</a></p><p><b>payor</b>: <a href=\"#Organization_d3637025-883d-4678-9e0a-1d243a338f9f\">See above (Organization/d3637025-883d-4678-9e0a-1d243a338f9f)</a></p><h3>Classes</h3><table class=\"grid\"><tr><td>-</td><td><b>Type</b></td><td><b>Value</b></td><td><b>Name</b></td></tr><tr><td>*</td><td><span title=\"Codes: {http://terminology.hl7.org/CodeSystem/coverage-class group}\">Group</span></td><td>12344frgr</td><td>Group Number</td></tr></table><p><b>order</b>: 1</p><p><b>network</b>: Dakotacare</p></div>"
        },
        "status" : "active",
        "type" : {
          "coding" : [
            {
              "system" : "http://terminology.hl7.org/CodeSystem/v3-ActCode",
              "code" : "HIP",
              "display" : "health insurance plan policy"
            }
          ]
        },
        "subscriber" : {
          "reference" : "urn:uuid:4db51d32-65c3-4f8c-959e-0155c6d14545",
          "type" : "RelatedPerson"
        },
        "subscriberId" : "4353",
        "beneficiary" : {
          "reference" : "urn:uuid:fc2e5a72-c363-4616-ae00-4ad25cbcb45c",
          "type" : "Patient"
        },
        "payor" : [
          {
            "reference" : "urn:uuid:d3637025-883d-4678-9e0a-1d243a338f9f",
            "type" : "Organization"
          }
        ],
        "class" : [
          {
            "type" : {
              "coding" : [
                {
                  "system" : "http://terminology.hl7.org/CodeSystem/coverage-class",
                  "code" : "group",
                  "display" : "Group"
                }
              ]
            },
            "value" : "12344frgr",
            "name" : "Group Number"
          }
        ],
        "order" : 1,
        "network" : "Dakotacare"
      }
    },
    {
      "fullUrl" : "urn:uuid:4db51d32-65c3-4f8c-959e-0155c6d14545",
      "resource" : {
        "resourceType" : "RelatedPerson",
        "id" : "4db51d32-65c3-4f8c-959e-0155c6d14545",
        "meta" : {
          "profile" : [
            "http://dev.gene.com/fhir/uapi/StructureDefinition/uapi-relatedPerson"
          ]
        },
        "text" : {
          "status" : "generated",
          "div" : "<div xmlns=\"http://www.w3.org/1999/xhtml\"><p><b>Generated Narrative</b></p><p><b>patient</b>: <a href=\"#Patient_fc2e5a72-c363-4616-ae00-4ad25cbcb45c\">See above (Patient/fc2e5a72-c363-4616-ae00-4ad25cbcb45c)</a></p><p><b>relationship</b>: <span title=\"Codes: {http://terminology.hl7.org/CodeSystem/v3-RoleCode SIGOTHR}\">significant other</span></p><p><b>name</b>: Bob Paul Smith (OFFICIAL)</p><p><b>telecom</b>: <a href=\"tel:+33(237)998327\">+33 (237) 998327</a></p><p><b>birthDate</b>: 1972-10-29</p></div>"
        },
        "patient" : {
          "reference" : "urn:uuid:fc2e5a72-c363-4616-ae00-4ad25cbcb45c",
          "type" : "Patient"
        },
        "relationship" : [
          {
            "coding" : [
              {
                "system" : "http://terminology.hl7.org/CodeSystem/v3-RoleCode",
                "code" : "SIGOTHR",
                "display" : "significant other"
              }
            ]
          }
        ],
        "name" : [
          {
            "use" : "official",
            "family" : "Smith",
            "given" : [
              "Bob Paul"
            ]
          }
        ],
        "telecom" : [
          {
            "system" : "phone",
            "value" : "+33 (237) 998327",
            "use" : "mobile"
          }
        ],
        "birthDate" : "1972-10-29"
      }
    },
    {
      "fullUrl" : "urn:uuid:5342779a-184f-42ba-ab44-3a8e023979f7",
      "resource" : {
        "resourceType" : "QuestionnaireResponse",
        "id" : "5342779a-184f-42ba-ab44-3a8e023979f7",
        "text" : {
          "status" : "generated",
          "div" : "<div xmlns=\"http://www.w3.org/1999/xhtml\"><p><b>Generated Narrative</b></p><p><b>questionnaire</b>: <a href=\"https://dev.gene.com/fhir/uapi/fhirapi/Questionnaire/1234\">https://dev.gene.com/fhir/uapi/fhirapi/Questionnaire/1234</a></p><p><b>status</b>: completed</p><p><b>subject</b>: <a href=\"#Patient_fc2e5a72-c363-4616-ae00-4ad25cbcb45c\">See above (Patient/fc2e5a72-c363-4616-ae00-4ad25cbcb45c)</a></p><blockquote><p><b>item</b></p><p><b>linkId</b>: do-not-contact-patient</p><p><b>text</b>: Do not contact patient</p><h3>Answers</h3><table class=\"grid\"><tr><td>-</td><td><b>Value[x]</b></td></tr><tr><td>*</td><td>true</td></tr></table></blockquote><blockquote><p><b>item</b></p><p><b>linkId</b>: has-patient-started-therapy</p><p><b>text</b>: Has Patient Started Therapy</p><h3>Answers</h3><table class=\"grid\"><tr><td>-</td><td><b>Value[x]</b></td></tr><tr><td>*</td><td>true</td></tr></table></blockquote><blockquote><p><b>item</b></p><p><b>linkId</b>: ok-to-send-text-message</p><p><b>text</b>: Ok to send text messag</p><h3>Answers</h3><table class=\"grid\"><tr><td>-</td><td><b>Value[x]</b></td></tr><tr><td>*</td><td>true</td></tr></table></blockquote><blockquote><p><b>item</b></p><p><b>linkId</b>: anticipated-date-of-treatment</p><p><b>text</b>: Anticipated Date of Treatment</p><h3>Answers</h3><table class=\"grid\"><tr><td>-</td><td><b>Value[x]</b></td></tr><tr><td>*</td><td>2021-01-03</td></tr></table></blockquote><blockquote><p><b>item</b></p><p><b>linkId</b>: ok-to-leave-detailed-message</p><p><b>text</b>: Ok to leave detailed message</p><h3>Answers</h3><table class=\"grid\"><tr><td>-</td><td><b>Value[x]</b></td></tr><tr><td>*</td><td>true</td></tr></table></blockquote></div>"
        },
        "questionnaire" : "https://dev.gene.com/fhir/uapi/fhirapi/Questionnaire/1234",
        "status" : "completed",
        "subject" : {
          "reference" : "urn:uuid:fc2e5a72-c363-4616-ae00-4ad25cbcb45c",
          "type" : "Patient"
        },
        "item" : [
          {
            "linkId" : "do-not-contact-patient",
            "text" : "Do not contact patient",
            "answer" : [
              {
                "valueBoolean" : true
              }
            ]
          },
          {
            "linkId" : "has-patient-started-therapy",
            "text" : "Has Patient Started Therapy",
            "answer" : [
              {
                "valueBoolean" : true
              }
            ]
          },
          {
            "linkId" : "ok-to-send-text-message",
            "text" : "Ok to send text messag",
            "answer" : [
              {
                "valueBoolean" : true
              }
            ]
          },
          {
            "linkId" : "anticipated-date-of-treatment",
            "text" : "Anticipated Date of Treatment",
            "answer" : [
              {
                "valueDate" : "2021-01-03"
              }
            ]
          },
          {
            "linkId" : "ok-to-leave-detailed-message",
            "text" : "Ok to leave detailed message",
            "answer" : [
              {
                "valueBoolean" : true
              }
            ]
          }
        ]
      }
    },
    {
      "fullUrl" : "urn:uuid:bc20c5ea-f639-4221-ab61-ce75c5e64aba",
      "resource" : {
        "resourceType" : "Condition",
        "id" : "bc20c5ea-f639-4221-ab61-ce75c5e64aba",
        "text" : {
          "status" : "generated",
          "div" : "<div xmlns=\"http://www.w3.org/1999/xhtml\"><p><b>Generated Narrative</b></p><p><b>code</b>: <span title=\"Codes: {http://hl7.org/fhir/sid/icd-10-cm E10.3211+TT1.2}\">E10.3211+TT1.2</span></p><p><b>subject</b>: <a href=\"#Patient_fc2e5a72-c363-4616-ae00-4ad25cbcb45c\">See above (Patient/fc2e5a72-c363-4616-ae00-4ad25cbcb45c)</a></p></div>"
        },
        "code" : {
          "coding" : [
            {
              "system" : "http://hl7.org/fhir/sid/icd-10-cm",
              "code" : "E10.3211+TT1.2"
            }
          ]
        },
        "subject" : {
          "reference" : "urn:uuid:fc2e5a72-c363-4616-ae00-4ad25cbcb45c",
          "type" : "Patient"
        }
      }
    },
    {
      "fullUrl" : "urn:uuid:1b53bfb2-1361-4906-acd8-35294d30273b",
      "resource" : {
        "resourceType" : "Consent",
        "id" : "1b53bfb2-1361-4906-acd8-35294d30273b",
        "text" : {
          "status" : "generated",
          "div" : "<div xmlns=\"http://www.w3.org/1999/xhtml\"><p><b>Generated Narrative</b></p><p><b>status</b>: active</p><p><b>scope</b>: <span title=\"Codes: {http://terminology.hl7.org/CodeSystem/consentscope patient-privacy}\">Privacy Consent</span></p><p><b>category</b>: <span title=\"Codes: {http://loinc.org 59284-0}\">Patient Authorization Signature</span></p><p><b>patient</b>: <a href=\"#Patient_fc2e5a72-c363-4616-ae00-4ad25cbcb45c\">See above (Patient/fc2e5a72-c363-4616-ae00-4ad25cbcb45c)</a></p><p><b>policyRule</b>: <span title=\"Codes: {http://terminology.hl7.org/CodeSystem/consentpolicycodes hipaa-auth}\">HIPAA Authorization</span></p></div>"
        },
        "status" : "active",
        "scope" : {
          "coding" : [
            {
              "system" : "http://terminology.hl7.org/CodeSystem/consentscope",
              "code" : "patient-privacy",
              "display" : "Privacy Consent"
            }
          ]
        },
        "category" : [
          {
            "coding" : [
              {
                "system" : "http://loinc.org",
                "code" : "59284-0",
                "display" : "Patient Authorization Signature"
              }
            ]
          }
        ],
        "patient" : {
          "reference" : "urn:uuid:fc2e5a72-c363-4616-ae00-4ad25cbcb45c",
          "type" : "Patient"
        },
        "policyRule" : {
          "coding" : [
            {
              "system" : "http://terminology.hl7.org/CodeSystem/consentpolicycodes",
              "code" : "hipaa-auth",
              "display" : "HIPAA Authorization"
            }
          ]
        }
      }
    },
    {
      "fullUrl" : "urn:uuid:cb626b8a-4e0e-484b-b4fb-1f48fd318418",
      "resource" : {
        "resourceType" : "Provenance",
        "id" : "cb626b8a-4e0e-484b-b4fb-1f48fd318418",
        "meta" : {
          "profile" : [
            "http://dev.gene.com/fhir/uapi/StructureDefinition/uapi-provenance"
          ]
        },
        "text" : {
          "status" : "generated",
          "div" : "<div xmlns=\"http://www.w3.org/1999/xhtml\"><p><b>Generated Narrative</b></p><p><b>target</b>: <a href=\"#Consent_1b53bfb2-1361-4906-acd8-35294d30273b\">See above (Consent/1b53bfb2-1361-4906-acd8-35294d30273b)</a></p><p><b>recorded</b>: Jan 6, 2021, 10:49:41 PM</p><h3>Agents</h3><table class=\"grid\"><tr><td>-</td><td><b>Who</b></td></tr><tr><td>*</td><td><a href=\"#Patient_fc2e5a72-c363-4616-ae00-4ad25cbcb45c\">See above (Patient/fc2e5a72-c363-4616-ae00-4ad25cbcb45c)</a></td></tr></table><h3>Signatures</h3><table class=\"grid\"><tr><td>-</td></tr><tr><td>*</td></tr></table></div>"
        },
        "target" : [
          {
            "reference" : "urn:uuid:1b53bfb2-1361-4906-acd8-35294d30273b",
            "type" : "Consent"
          }
        ],
        "recorded" : "2021-01-07T06:49:41.382941+00:00",
        "agent" : [
          {
            "who" : {
              "reference" : "urn:uuid:fc2e5a72-c363-4616-ae00-4ad25cbcb45c",
              "type" : "Patient"
            }
          }
        ],
        "signature" : [
          {
            "type" : [
              {
                "system" : "urn:iso-astm:E1762-95:2013",
                "code" : "1.2.840.10065.1.12.1.7",
                "display" : "Consent Signature"
              }
            ],
            "when" : "2021-01-07T06:49:41.382897+00:00",
            "who" : {
              "reference" : "urn:uuid:fc2e5a72-c363-4616-ae00-4ad25cbcb45c",
              "type" : "Patient"
            },
            "sigFormat" : "image/*",
            "data" : "bQ=="
          }
        ]
      }
    },
    {
      "fullUrl" : "urn:uuid:212c57ad-45cd-4882-87e7-8415ded3db05",
      "resource" : {
        "resourceType" : "ServiceRequest",
        "id" : "212c57ad-45cd-4882-87e7-8415ded3db05",
        "meta" : {
          "profile" : [
            "http://dev.gene.com/fhir/uapi/StructureDefinition/uapi-servicerequest"
          ]
        },
        "text" : {
          "status" : "generated",
          "div" : "<div xmlns=\"http://www.w3.org/1999/xhtml\"><p><b>Generated Narrative</b></p><p><b>status</b>: active</p><p><b>intent</b>: order</p><p><b>code</b>: <span title=\"Codes: {http://terminology.gene.com/fhir/usix/uapi/CodeSystem/uapi-sr-type biPA}\">biPA</span></p><p><b>subject</b>: <a href=\"#Patient_fc2e5a72-c363-4616-ae00-4ad25cbcb45c\">See above (Patient/fc2e5a72-c363-4616-ae00-4ad25cbcb45c)</a></p></div>"
        },
        "status" : "active",
        "intent" : "order",
        "code" : {
          "coding" : [
            {
              "system" : "http://terminology.gene.com/fhir/usix/uapi/CodeSystem/uapi-sr-type",
              "code" : "biPA"
            }
          ]
        },
        "subject" : {
          "reference" : "urn:uuid:fc2e5a72-c363-4616-ae00-4ad25cbcb45c",
          "type" : "Patient"
        }
      }
    },
    {
      "fullUrl" : "urn:uuid:1409c0e9-6b06-4de5-82e7-577516c866db",
      "resource" : {
        "resourceType" : "ServiceRequest",
        "id" : "1409c0e9-6b06-4de5-82e7-577516c866db",
        "meta" : {
          "profile" : [
            "http://dev.gene.com/fhir/uapi/StructureDefinition/uapi-servicerequest"
          ]
        },
        "text" : {
          "status" : "generated",
          "div" : "<div xmlns=\"http://www.w3.org/1999/xhtml\"><p><b>Generated Narrative</b></p><p><b>status</b>: active</p><p><b>intent</b>: order</p><p><b>code</b>: <span title=\"Codes: {http://terminology.gene.com/fhir/usix/uapi/CodeSystem/uapi-sr-type starter}\">starter</span></p><p><b>subject</b>: <a href=\"#Patient_fc2e5a72-c363-4616-ae00-4ad25cbcb45c\">See above (Patient/fc2e5a72-c363-4616-ae00-4ad25cbcb45c)</a></p></div>"
        },
        "status" : "active",
        "intent" : "order",
        "code" : {
          "coding" : [
            {
              "system" : "http://terminology.gene.com/fhir/usix/uapi/CodeSystem/uapi-sr-type",
              "code" : "starter"
            }
          ]
        },
        "subject" : {
          "reference" : "urn:uuid:fc2e5a72-c363-4616-ae00-4ad25cbcb45c",
          "type" : "Patient"
        }
      }
    },
    {
      "fullUrl" : "urn:uuid:df610b38-2561-423c-b17a-36364f5a82c1",
      "resource" : {
        "resourceType" : "MedicationRequest",
        "id" : "df610b38-2561-423c-b17a-36364f5a82c1",
        "meta" : {
          "profile" : [
            "http://dev.gene.com/fhir/uapi/StructureDefinition/uapi-medicationrequest"
          ]
        },
        "text" : {
          "status" : "generated",
          "div" : "<div xmlns=\"http://www.w3.org/1999/xhtml\"><p><b>Generated Narrative</b></p><p><b>status</b>: active</p><p><b>intent</b>: order</p><p><b>medication</b>: <span title=\"Codes: {http://terminology.gene.com/fhir/usix/uapi/CodeSystem/uapi-product-name alecensa}\">Alecensa</span></p><p><b>subject</b>: <a href=\"#Patient_fc2e5a72-c363-4616-ae00-4ad25cbcb45c\">See above (Patient/fc2e5a72-c363-4616-ae00-4ad25cbcb45c)</a></p><p><b>requester</b>: <a href=\"#Practitioner_695d0991-5e03-46df-934a-85a28acd95c1\">See above (Practitioner/695d0991-5e03-46df-934a-85a28acd95c1)</a></p><p><b>courseOfTherapyType</b>: <span title=\"Codes: \">CLL/SLL (Maint)</span></p><p><b>insurance</b>: <a href=\"#Coverage_42b41bdb-1781-49aa-a091-78cdd92129df\">See above (Coverage/42b41bdb-1781-49aa-a091-78cdd92129df)</a></p><p><b>note</b>: 600mg BID</p><h3>DosageInstructions</h3><table class=\"grid\"><tr><td>-</td></tr><tr><td>*</td></tr></table><blockquote><p><b>dispenseRequest</b></p><p><b>numberOfRepeatsAllowed</b>: 3</p><h3>ExpectedSupplyDurations</h3><table class=\"grid\"><tr><td>-</td></tr><tr><td>*</td></tr></table></blockquote></div>"
        },
        "status" : "active",
        "intent" : "order",
        "medicationCodeableConcept" : {
          "coding" : [
            {
              "system" : "http://terminology.gene.com/fhir/usix/uapi/CodeSystem/uapi-product-name",
              "code" : "alecensa",
              "display" : "Alecensa"
            }
          ]
        },
        "subject" : {
          "reference" : "urn:uuid:fc2e5a72-c363-4616-ae00-4ad25cbcb45c",
          "type" : "Patient"
        },
        "requester" : {
          "reference" : "urn:uuid:695d0991-5e03-46df-934a-85a28acd95c1",
          "type" : "Practitioner"
        },
        "courseOfTherapyType" : {
          "text" : "CLL/SLL (Maint)"
        },
        "insurance" : [
          {
            "reference" : "urn:uuid:42b41bdb-1781-49aa-a091-78cdd92129df",
            "type" : "Coverage"
          }
        ],
        "note" : [
          {
            "text" : "600mg BID"
          }
        ],
        "dosageInstruction" : [
          {
            "timing" : {
              "repeat" : {
                "frequency" : 2,
                "period" : 1,
                "periodUnit" : "d"
              }
            },
            "doseAndRate" : [
              {
                "doseQuantity" : {
                  "value" : 600,
                  "unit" : "mg"
                }
              }
            ]
          }
        ],
        "dispenseRequest" : {
          "numberOfRepeatsAllowed" : 3,
          "expectedSupplyDuration" : {
            "value" : 1,
            "unit" : "mo"
          }
        }
      }
    },
    {
      "fullUrl" : "urn:uuid:d3637025-883d-4678-9e0a-1d243a338f9f",
      "resource" : {
        "resourceType" : "Organization",
        "id" : "d3637025-883d-4678-9e0a-1d243a338f9f",
        "meta" : {
          "profile" : [
            "http://dev.gene.com/fhir/uapi/StructureDefinition/uapi-organization"
          ]
        },
        "text" : {
          "status" : "generated",
          "div" : "<div xmlns=\"http://www.w3.org/1999/xhtml\"><p><b>Generated Narrative</b></p><p><b>identifier</b>: id: PAY-111 (USUAL)</p><p><b>type</b>: <span title=\"Codes: {http://terminology.hl7.org/CodeSystem/organization-type ins}\">Insurance Company</span></p><p><b>name</b>: Dakotacare</p><p><b>telecom</b>: ph: 8778472862(WORK)</p></div>"
        },
        "identifier" : [
          {
            "use" : "usual",
            "system" : "http://vendor.com/ab",
            "value" : "PAY-111",
            "assigner" : {
              "display" : "AB Vendor"
            }
          }
        ],
        "type" : [
          {
            "coding" : [
              {
                "system" : "http://terminology.hl7.org/CodeSystem/organization-type",
                "code" : "ins"
              }
            ]
          }
        ],
        "name" : "Dakotacare",
        "telecom" : [
          {
            "system" : "phone",
            "value" : "8778472862",
            "use" : "work",
            "rank" : 1
          }
        ]
      }
    }
  ]
}