{
	"resourceType": "Bundle",
	"id": "mni-patientOverview-bundle-example1", 
	"link" : [{
    "url" : "base/Patient?name=test",
    "relation" : "self"
  },{
    "url" : "base/Patient?name=test",
    "relation" : "first"
  }],
	"meta": {
		"profile": [
			"https://mednet.swiss/fhir/StructureDefinition/mni-patientOverview-bundle"
		]
	},
	"identifier": {
		"system": "urn:ietf:rfc:3986",
		"value": "urn:uuid:0c3151bd-1cbf-4d64-b04d-cd9187a4c6e0"
	},
	"type": "document",
	"timestamp": "2020-04-24T11:06:00+01:00", 
	"entry": [
		{
			"fullUrl": "Composition/1", 
			"resource": {
				"resourceType": "Composition",
				"id": "1", 
				"meta": {
					"profile": [
						"https://mednet.swiss/fhir/StructureDefinition/mni-patientOverview-composition"
					]
				},
				"language": "de-CH", 
				
				"status": "final",
				"type": {
					"coding": [
						{
							"system": "http://loinc.org",
							"code": "60591-5",
							"display": "Patient summary Document"
						}
					]
				},
				"subject": {
					"reference": "Patient/1" 
				},
				"encounter": {
					"reference": "Encounter/1" 
				},
				"date": "2020-04-24T11:06:00+01:00", 
				"author": [ 
					{
						"reference": "Device/1"
					}
				],
				"title": "PatientOverview",
				"confidentiality": "N",
				"section": [
					{ 
					
						"title":"Insurance data section",
					
						"code": {
							"coding": [
								{
									"system": "http://loinc.org",
									"code": "76437-3",
									"display": "Primary insurance"
								}
							]
						},
						"entry": [
							{
								"reference": "Coverage/1" 
							}
						]
					},
					
					{ 
					
						"title":"Medication Summary section",
					
						"code": {
							"coding": [
								{
									"system": "http://loinc.org",
									"code": "10160-0",
									"display": "History of Medication use Narrative"
								}
							]
						},
						"entry": [
							{
								"reference": "MedicationStatement/1"
																		
							},
							{
								"reference": "MedicationStatement/2"
							},
							{
								"reference": "MedicationStatement/3"
							}
							
							
						]
					},
					
					
					{ 
					
						"title":"Allergies section",
						
						"code": {
							"coding": [
								{
									"system": "http://loinc.org",
									"code": "48765-2",
									"display": "Allergies and adverse reactions Document"
								}
							]
						},
						"entry": [
							{
								"reference": "AllergyIntolerance/1"
																		
							},
							{
								"reference": "AllergyIntolerance/2"
							}
							
						]
					},
					
					{ 
					
						"title":"Problems section",
					
						"code": {
							"coding": [
								{
									"system": "http://loinc.org",
									"code": "11450-4",
									"display": "Problem list - Reported"
								}
							]
						},
						"entry": [
							{
								"reference": "Condition/1"
																		
							},
							{
								"reference": "Condition/2"
							}
							
						]
					},
					{ 
					
						"title":"Procedures section",
					
						"code": {
							"coding": [
								{
									"system": "http://loinc.org",
									"code": "47519-4",
									"display": "History of Procedures Document"
								}
							]
						},
						"entry": [
							
							{
								"reference": "Procedure/1"
																		
							},
							{
								"reference": "Procedure/2"
							}
							
						]
					},
					
					
					{ 
					
						"title":"Results section",
					
						"code": {
							"coding": [
								{
									"system": "http://loinc.org",
									"code": "30954-2",
									"display": "Relevant diagnostic tests/laboratory data Narrative"
								}
							]
						},
						"entry": [
							{
								"reference": "Observation/1"
																		
							},
							{
								"reference": "Observation/2"
																		
							},
							{
								"reference": "Observation/3"
																		
							}
							
						]
					},
					
					
					{ 
					
						"title":"Vital signs section",
					
						"code": {
							"coding": [
								{
									"system": "http://loinc.org",
									"code": "8716-3",
									"display": "Vital signs"
								}
							]
						},
						"entry": [
							
							{
								"reference": "Observation/4"
																		
							},
							{
								"reference": "Observation/5"
																		
							},
							{
								"reference": "Observation/6"
																		
							},
							{
								"reference": "Observation/7"
																		
							},
							{
								"reference": "Observation/8"
																		
							}
							
						]
					},
					
					{ 
					
						"title":"Social history section",
					
						"code": {
							"coding": [
								{
									"system": "http://loinc.org",
									"code": "29762-2",
									"display": "Social history Narrative"
								}
							]
						},
						"entry": [
							
							
							
							
							{
								"reference": "Observation/9"
																		
							},
							{
								"reference": "Observation/10"
							},
							
							
							{
								"reference": "FamilyMemberHistory/1"
																		
							},
							{
								"reference": "FamilyMemberHistory/2"
							}
							
						]
					},
					
				
					{ 
					
						"title":"Pregnancy section",
					
						"code": {
							"coding": [
								{
									"system": "http://loinc.org",
									"code": "10162-6",
									"display": "History of pregnancies Narrative"
								}
							]
						},
						"entry": [
							{
								"reference": "Observation/11"
																		
							},
							{
								"reference": "Observation/12"
																		
							},
							{
								"reference": "Observation/13"
																		
							},
							{
								"reference": "Observation/14"
																		
							}
						]
					},
					
					
					
					{ 
					
						"title":"Documents section",
					
						"code": {
							"coding": [
								{
									"system": "http://loinc.org",
									"code": "51899-3",
									"display": "Details Document"
								}
							]
						},
						"entry": [
							{
								"reference": "DocumentReference/1"
																		
							},
							{
								"reference": "DocumentReference/2"
							}
							
						]
					}
				]
			}
		},
		
	
	
	
		{
			"fullUrl": "Patient/1", 
			"resource": {
				"resourceType": "Patient",
				"id": "1", 
				"meta": {
					"profile": [
						"https://mednet.swiss/fhir/StructureDefinition/mni-patient"
					]
				},
				
				"identifier": [
				
					
					
					
					{
						"type": {
							"coding": [
								{
									"system": "http://terminology.hl7.org/CodeSystem/v2-0203",
									"code": "MR",
									"display": "Medical record number"
								}
							]
						},
						"system": "https://mysoftware.ch", 
																			
						"value": "123456"
					},
					
					
					
					
					{
						"system": "urn:oid:2.16.756.5.32",
						"value": "7561234567897" 
					}
				],
				
				
				
				
				
				"name": [
					{
						"use": "usual", 
						"family": "Muster",
						"given": [ 
							"Anna",
							"Paola"
						],
						"prefix": [ 
							"Dr. phil."
						],
						"suffix": [ 
							"Jr."
						]
					},
					{
						"use": "maiden", 
						"family": "Meier",
						"given": [ 
							"Anna",
							"Paola"
						],
						"prefix": [ 
							"Dr. phil."
						],
						"suffix": [
							"Junior" 
						]
					}
				],
				
				
				
				
				
				
				"telecom": [
					{
						"system": "phone", 
						"value": "0615617461",
						"use": "home", 
						"rank": 3 
					},
					{
						"system": "phone", 
						"value": "0615617462",
						"use": "mobile", 
						"rank": 1 
					},
					{
						"system": "email", 
						"value": "anna.muster@sampledomain.ch",
						"use": "home", 
						"rank": 2 
					}
				],
				
				
				
				
				"gender": "female", 
				
				
				
				
				"birthDate": "1985-12-12", 
				
				
				
				
				
				"address": [
					{
						"use": "home", 
						"line": [
							"Pfeffingerstrasse 19"
						],
						"city": "Reinach",
						"postalCode": "4153",
						"country": "CH" 
					}
				],
				
				
				
				
				"maritalStatus" : {
					"coding": [
						{
							"system": "http://terminology.hl7.org/CodeSystem/v3-MaritalStatus", 
							"code": "M", 
							"display": "Married"
						}
					]
				},
				
				
				
				
				
				"contact" : [
					{
						
						
						
						
						"relationship":[ 
							{
								"coding":[
									{
										"system":"http://terminology.hl7.org/CodeSystem/v2-0131", 
										"code":"C", 
										"display":"Emergency Contact"
									}
								]
							},
							{
								"coding":[
									{
										"system":"http://terminology.hl7.org/CodeSystem/v3-RoleCode", 
										"code":"SIS", 
										"display":"sister"
									}
								]
							}
						],
					
						
						
						
						"name": 
							{
								"use": "usual", 
								"family": "Muster",
								"given": [ 
									"Elisa"
								],
								"prefix": [ 
									"Prof."
								],
								"suffix": [ 
									"Jr."
								]
							}
						,
						
						
						
						
						
						
						"telecom": [
							{
								"system": "phone", 
								"value": "0615617461",
								"use": "home", 
								"rank": 1 
							},
							{
								"system": "email", 
								"value": "elisa.muster@sampledomain.ch",
								"use": "home", 
								"rank": 2 
							}
						],
						
						
						
						
						
						
						"address": 
							{
								"use": "home", 
								"line": [
									"Pfeffingerstrasse 19"
								],
								"city": "Reinach",
								"postalCode": "4153",
								"country": "CH" 
							}
						,
					
						
						
						
						"gender": "female" 
					
					},
					{
						
						
						
						
						"relationship":[ 
							{
								"coding":[{
										"system":"http://terminology.hl7.org/CodeSystem/v2-0131", 
										"code":"E", 
										"display":"Employer"
									}
								]
							}
						],
						"organization":{
							"reference": "Organization/1" 
						}
					
					}
					
				],
				
				
				
				
				"communication" : [
					{
						"language" : {
							"coding":[
									{
										"system":"urn:ietf:bcp:47", 
										"code":"de-CH", 
										"display":"German (Region=Switzerland)"
									}
							]
						},
						"preferred" : true
					},
					{
						"language" : {
							"coding":[
									{
										"system":"urn:ietf:bcp:47", 
										"code":"fr", 
										"display":"French"
									}
							]
						},
						"preferred" : false
					}
				],
				
				
				
				
				"generalPractitioner": [
					{
						"reference": "Practitioner/1" 
																		
					}
				]
			}
		},
		
	
	
	
	
	
		{
			"fullUrl": "Organization/1", 
			"resource": {
				"resourceType": "Organization",
				"id": "1", 
				"meta": {
					"profile": [
						"https://mednet.swiss/fhir/StructureDefinition/mni-organization"
					]
				},
				
				
				
				
				
				"name": "novcom AG",
				
				
				
				
				
				"telecom": [
					{
						"system": "phone", 
						"value": "061 561 74 61",
						"use": "work" 
					},
					
					{
						"system": "email", 
						"value": "info@novcom.swiss",
						"use": "work" 
					}
				],
				
				
				
				
				
				"address": [
					{
						"use": "work", 
						"line": [
							"Pfeffingertrasse 19"
						],
						"city": "Reinach",
						"postalCode": "4153",
						"country": "CH" 
					}
				]
			}
		},
	
	
	
	
	
		{
			"fullUrl": "Practitioner/1", 
			"resource": {
				"resourceType": "Practitioner",
				"id": "1", 
				
				"identifier": [
					
					
					
					{
						"system": "urn:oid:2.51.1.3",
						"value": "7601000000001"
					},
					
					
					
					{
						"system": "urn:oid:2.16.756.5.30.1.123.100.2.1.1",
						"value": "ABCD-123"
					}
				],
				
				
				
				
				
				"name": [
					{
						"use": "usual", 
						"family": "Müller",
						"given": [
							"Max"
						],
						"prefix": [ 
							"Dr. med."
						]
					}
				],
				
				
				
				
				
				"telecom": [
					{
						"system": "phone", 
						"value": "0615617462",
						"use": "work", 
						"rank": 3 
					}
				],
				
				
				
				
				
				"address": [
					{
						"use": "work", 
						"line": [
							"Pfeffingerstrasse 19" 
						],
						"city": "Reinach",
						"postalCode": "4153",
						"country": "CH" 
					}
				],
				
				
				
				
				"gender": "male" 
			}
		},
	
	
	
	
		{
			"fullUrl": "Encounter/1", 
			"resource": {
				"resourceType": "Encounter",
				"id": "1", 
				"meta": {
					"profile": [
						"https://mednet.swiss/fhir/StructureDefinition/mni-encounter"
					]
				},
				
				"identifier": [
				
				
				
					{
						"value": "123987456"
					}
				],
				
				"status":"in-progress",
				
				"class": {
					"system" : "http://terminology.hl7.org/CodeSystem/v3-ActCode",
					"code" : "AMB",
					"display" : "ambulatory" 
				},
				
				"subject": {
					"reference": "Patient/1" 
				},
				
				"basedOn" : [
					{
					"reference": "ServiceRequest/1" 
					}
				]
			}
		},
	
	
	
	
	
	
		{
			"fullUrl": "ServiceRequest/1", 
			"resource": {
			"resourceType": "ServiceRequest",
				"id": "1", 
				
				"meta": {
					"profile": [
						"https://mednet.swiss/fhir/StructureDefinition/mni-serviceRequest"
					]
				},
				
				"identifier": [
				
					
					
					
					{
						"type": {
							"coding": [
								{
									"system": "http://terminology.hl7.org/CodeSystem/v2-0203",
									"code": "MR",
									"display": "Medical record number"
								}
							]
						},
						"system": "https://mysoftware.ch", 
																			
						"value": "123987456"
					}
					
				],
				
				"status":"active",
				
				"intent":"order",
				
				"priority":"urgent",
				
				"subject": {
					"reference": "Patient/1" 
				}
			}
		},
		
	
	
	
		{
			"fullUrl": "Device/1", 
			"resource": {
				"resourceType": "Device",
				"id": "1", 
				"manufacturer": "MySoftCompany",
				"deviceName": [
					{
						"name": "MySoftware",
						"type": "user-friendly-name"
					}
				],
				"version": [
					{
						"value": "1.0.0"
					}
				]
			}
		},
		
	
	
	
		{
			"fullUrl": "Coverage/1", 
			"resource": {
				"resourceType": "Coverage",
				"id": "1", 
				"meta": {
					"profile": [
						"https://mednet.swiss/fhir/StructureDefinition/mni-coverage"
					]
				},
				
				"contained" : [
					{
					"resourceType": "RelatedPerson",
						"id": "mni-relatedPerson1", 
						"meta": {
							"profile": [
								"https://mednet.swiss/fhir/StructureDefinition/mni-relatedPerson"
							]
						},
					
						"active": true,
						
						"patient": {
							"reference": "Patient/1" 
						},
						
						"relationship": [
							{
								"coding": [
									{
										"system": "http://terminology.hl7.org/CodeSystem/v3-RoleCode",
										"code": "MTH",
										"display": "mother" 
									}
								],
								"text": "Patient's mother" 
							}
						],
						
						
						
						
						
						"name": [
							{
								"use": "usual", 
								"family": "Müller",
								"given": [
									"Eleonor"
								],
								"prefix": [
									"Pharm.D." 
								]
							}
						],
						
						
						
						
						
						"telecom": [
							{
								"system": "phone", 
								"value": "0615617461",
								"use": "home", 
								"rank": 1 
							}
						],
						
						
						
						
						"gender": "female", 
						
						
						
						
						
						"address": [
							{
								"use": "home", 
								"line": [
									"Pfeffingerstrasse 19" 
								],
								"city": "Reinach",
								"postalCode": "4153",
								"country": "CH" 
							}
						]
					}
				],
				
				
				"identifier": [
				
				
				
				
					{
						"system": "urn:oid:2.16.756.5.30.1.123.100.1.1.1",
						"value": "80756015090002647590"
					}
				],
				"status": "active",
				"beneficiary": {
					"reference": "Patient/1" 
				},
				"payor": [
					{
						"reference": "Organization/2" 
					},
					{
						"reference": "#mni-relatedPerson1"
					}
				]
			}
		},
		
	
	
	
		{
			"fullUrl": "Organization/2", 
			"resource": {
				"resourceType": "Organization",
				"id": "2", 
				"meta": {
					"profile": [
						"https://mednet.swiss/fhir/StructureDefinition/mni-organization"
					]
				},
				
				"identifier": [
				
				
				
					{
						"system": "urn:oid:2.51.1.3", 
						"value": "7601003002294" 
					}
				],
				
				
				
				
				
				"type": [
					{
						"coding": [
							{
								"system": "http://terminology.hl7.org/CodeSystem/organization-type",
								"code": "ins",
								"display": "Insurance Company"
							}
						]
					}
				],
				
				
				
				
				"name": "Sanitas",
				
				
				
				
				
				"telecom": [
					{
						"system": "phone", 
						"value": "044 298 63 00",
						"use": "work" 
					},
					
					{
						"system": "email", 
						"value": "info@sanitas.com",
						"use": "work" 
					}
				],
				
				
				
				
				
				"address": [
					{
						"use": "work", 
						"line": [
							"Jägergasse 3",
							"Postfach"
						],
						"city": "Zürich",
						"postalCode": "8021",
						"country": "CH" 
					}
				]
			}
		},
		
	
	
	
		{
			"fullUrl": "RelatedPerson/1", 
			"resource": {
				"resourceType": "RelatedPerson",
				"id": "1", 
				"meta": {
					"profile": [
						"https://mednet.swiss/fhir/StructureDefinition/mni-relatedPerson"
					]
				},
				
				"active": true,
				
				"patient": {
					"reference": "Patient/1" 
				},
				
				"relationship": [
					{
						"coding": [
							{
								"system": "http://terminology.hl7.org/CodeSystem/v3-RoleCode",
								"code": "MTH",
								"display": "mother" 
							}
						],
						"text": "Patient's mother" 
					}
				],
				
				
				
				
				
				"name": [
					{
						"use": "usual", 
						"family": "Müller",
						"given": [
							"Eleonor"
						],
						"prefix": [
							"Pharm.D." 
						]
					}
				],
				
				
				
				
				
				"telecom": [
					{
						"system": "phone", 
						"value": "0615617461",
						"use": "home", 
						"rank": 1 
					}
				],
				
				
				
				
				"gender": "female", 
				
				
				
				
				
				"address": [
					{
						"use": "home", 
						"line": [
							"Pfeffingerstrasse 19" 
						],
						"city": "Reinach",
						"postalCode": "4153",
						"country": "CH" 
					}
				]
			}
		},
	
	
	
	
	
		{
			"fullUrl": "MedicationStatement/1", 
												
			"resource": {
				"resourceType": "MedicationStatement",
				
				"id": "1", 
				"meta": {
					"profile": [
						"https://mednet.swiss/fhir/StructureDefinition/mni-medicationStatement"
					]
				},
				
				"status": "active", 
				
				"medicationReference": {
					"reference": "Medication/1" 
				},
				
				"subject": {
					"reference": "Patient/1" 
				},
				
				"effectiveDateTime": "2020-01-01", 
				
				"dosage": [ 
					{
						"timing": {
							"repeat": {
								"when": ["PCM"] 
							}
						},
						"doseAndRate": [
							{
								"doseQuantity": {
									"value": 1 
								}
							}
						]
					},
					{
						"timing": {
							"repeat": {
								"when": ["PCD"] 
							}
						},
						"doseAndRate": [
							{
								"doseQuantity": {
									"value": 0 
								}
							}
						]
					},
					{
						"timing": {
							"repeat": {
								"when": ["PCV"]  
							}
						},
						"doseAndRate": [
							{
								"doseQuantity": {
									"value": 1 
								}
							}
						]
					},
					{
						"timing": {
							"repeat": {
								"when": ["HS"]  
							}
						},
						"doseAndRate": [
							{
								"doseQuantity": {
									"value": 0 
								}
							}
						]
					}
				]
			}
		},
	
	
		
	
	
	
		{
			"fullUrl": "Medication/1", 
			"resource": {
				"resourceType": "Medication",
					"id": "1", 
					"meta": {
						"profile": [
							"https://mednet.swiss/fhir/StructureDefinition/mni-medication"
						]
					},
					"code": {
						"coding": [
							{
								"system": "urn:oid:2.51.1.1", 
								"code": "7680336700282"
							},
							{
								"system": "urn:oid:2.16.756.5.30.2.6.1", 
								"code": "0058985"
							},
							{
								"system": "https://mednet.swiss/fhir/productNumber", 
								"code": "3367001"
							}
						],
						"text": "ASPIRIN C Brausetabl 10 Stk" 
					}
			}
		},
	
	
		
	
	
	
		{
			"fullUrl": "MedicationStatement/2", 
			"resource": {
				"resourceType": "MedicationStatement",
				
				"id": "2", 
													
				"meta": {
					"profile": [
						"https://mednet.swiss/fhir/StructureDefinition/mni-medicationStatement"
					]
				},
				
				"contained": [ 
					{
						"resourceType": "Medication",
						"id": "mni-medication-example2", 
						"meta": {
							"profile": [
								"https://mednet.swiss/fhir/StructureDefinition/mni-medication"
							]
						},
						"code": {
							"coding": [
								{
									"system": "urn:oid:2.51.1.1", 
									"code": "7680669830038"
								},
								{
									"system": "urn:oid:2.16.756.5.30.2.6.1", 
									"code": "7739208"
								},
								{
									"system": "https://mednet.swiss/fhir/productNumber", 
									"code": "6698301"
								}
							],
							"text": "Paracetamol Axapharm Filmtabl 500 mg Ds 100 Stk" 
						}
					}
				],
				
				"status": "active", 
				
				"medicationReference": { 
					"reference": "#mni-medication-example2" 
				},
				
				"subject": {
					"reference": "Patient/1" 
				},
				
				"effectivePeriod": {
					"start": "2020-01-01", 
					"end": "2020-02-01" 
				},
				
				"dosage": [
					{
						"text": "1-0-1-0" 
						
					}
				]
			}
		},
	
	
	
	
		{
			"fullUrl": "MedicationStatement/3", 
			"resource": {
				"resourceType": "MedicationStatement",
				
				"id": "3", 
				"meta": {
					"profile": [
						"https://mednet.swiss/fhir/StructureDefinition/mni-medicationStatement"
					]
				},
				
				"contained": [ 
					{
						"resourceType": "Medication",
						"id": "mni-medication-example3", 
						"meta": {
							"profile": [
								"https://mednet.swiss/fhir/StructureDefinition/mni-medication"
							]
						},
						"code": {
							"coding": [
								{
									"system": "urn:oid:2.51.1.1", 
									"code": "7680336700282"
								},
								{
									"system": "urn:oid:2.16.756.5.30.2.6.1", 
									"code": "0058985"
								},
								{
									"system": "https://mednet.swiss/fhir/productNumber", 
									"code": "3367001"
								}
							],
							"text": "Aspirin C Brausetabl 10 Stk" 
						}
					}
				],
				
				"status": "active", 
				
				"medicationReference": { 
					"reference": "#mni-medication-example3" 
				},
				
				"subject": {
					"reference": "Patient/1" 
				},
				
				"effectiveDateTime": "2020-01-01", 
				
				"dosage": [
					{
						"timing": {
							"repeat": {
									"when": 
									["PCM","PCD"]  
							}
						},
						"doseAndRate": [
							{
								"doseQuantity": {
									"value": 1 
								}
							}
						]
					}
				]
			}
		},
	
	
	
	
	
	
		{
			"fullUrl": "AllergyIntolerance/1", 
												
			"resource": {
				"resourceType": "AllergyIntolerance",
				
				"id": "1", 
													
				"meta": {
					"profile": [
						"https://mednet.swiss/fhir/StructureDefinition/mni-allergyIntolerance"
					]
				},
				
				"clinicalStatus": {
					"coding": [
						{
							"system": "http://terminology.hl7.org/CodeSystem/allergyintolerance-clinical",
							"code": "active", 
							"display": "Active" 
						}
					]
				},
				
				"type": "allergy", 
				
				"category": [
					"food"  
				],
				
				"criticality": "high", 
				
				"code": {
					"coding": [
						{
							"system": "http://snomed.info/sct",
							"code": "91935009", 
							"display": "Allergy to peanuts" 
						}
					],
					"text": "Allergy to peanuts" 
				},
				"patient": {
					"reference": "Patient/1" 
				}
			}
		},
		
	
	
	
		
		{
			"fullUrl": "AllergyIntolerance/2", 
												
			"resource": {
				"resourceType": "AllergyIntolerance",
				
				"id": "2", 
													
				"meta": {
					"profile": [
						"https://mednet.swiss/fhir/StructureDefinition/mni-allergyIntolerance"
					]
				},
				
				"clinicalStatus": {
					"coding": [
						{
							"system": "http://terminology.hl7.org/CodeSystem/allergyintolerance-clinical",
							"code": "active", 
							"display": "Active" 
						}
					]
				},
				
				"type": "intolerance", 
				
				"category": [
					"food" 
				],
				
				"criticality": "low", 
				
				"code": {
					"coding": [
						{
							"system": "http://snomed.info/sct",
							"code": "3718001", 
							"display": "Cow's milk" 
						}
					],
					"text": "Allergy to cow's milk" 
				},
				
				"patient": {
					"reference": "Patient/1" 
				}
			}
		},
		
		
	
	
	
		{
			"fullUrl": "Condition/1", 
												
			"resource": {
				"resourceType": "Condition",
				
				"id": "1", 
				
				"meta": {
					"profile": [
						"https://mednet.swiss/fhir/StructureDefinition/mni-condition"
					]
				},
				
				"clinicalStatus": {
					"coding": [
						{
							"system": "http://terminology.hl7.org/CodeSystem/condition-clinical",
							"code": "active", 
							"display": "Active" 
						}
					]
				},
				
				"severity": {
					"coding": [
						{
							"system": "http://snomed.info/sct",
							"code": "255604002", 
							"display": "Mild" 
						}
					]
				},
				
				"code": {
					"coding": [
						{
							"system": "http://snomed.info/sct",
					
					
					
							"code": "409002",
							"display": "Food allergy diet" 
						}
					],
					"text": "Food allergy diet" 
				},
				
				"subject": {
					"reference": "Patient/1" 
				}
			}
		},
		
	
	
	
		{
			"fullUrl": "Condition/2", 
			
			"resource": {
				"resourceType": "Condition",
				
				"id": "2", 
													
				"meta": {
					"profile": [
						"https://mednet.swiss/fhir/StructureDefinition/mni-condition"
					]
				},
				
				"clinicalStatus": {
					"coding": [
						{
							"system": "http://terminology.hl7.org/CodeSystem/condition-clinical",
							"code": "active", 
							"display": "Active" 
						}
					]
				},
				
				"severity": {
					"coding": [
						{
							"system": "http://snomed.info/sct",
							"code": "6736007", 
							"display": "Moderate" 
						}
					]
				},
				
				"code": {
					"coding": [
						{
							"system": "http://snomed.info/sct",
					
					
					
							"code": "437009",
							"display": "Abnormal composition of urine" 
						}
					],
					"text": "Abnormal composition of urine" 
				},
				
				"bodySite" : [
					{
						"coding": [
							{
								"system": "http://snomed.info/sct",
								"code": "9846003", 
								"display": "Right kidney" 
							}
						]
					}
				],
				
				"subject": {
					"reference": "Patient/1" 
				}
			}
		},
	
		
	
	
	
		{
			"fullUrl": "Procedure/1", 
			"resource": {
			
				"resourceType": "Procedure",
				
				"id": "1", 
													
				"meta": {
					"profile": [
						"https://mednet.swiss/fhir/StructureDefinition/mni-procedure"
					]
				},
				
				"status": "completed", 
				
				"code": {
					"coding": [
						{
							"system": "http://snomed.info/sct",
							"code": "189009", 
							"display": "Excision of lesion of artery" 
						}
					],
					"text": "Excision of lesion of artery" 
				},
				
				"subject": {
					"reference": "Patient/1" 
				},
				
				"report": [
					{
						"reference": "DocumentReference/3"
					}
				]
			}
		},
		
	
	
	
		{
			"fullUrl": "Procedure/2", 
												
			"resource": {
				"resourceType": "Procedure",
				
				"id": "2", 
				
				"meta": {
					"profile": [
						"https://mednet.swiss/fhir/StructureDefinition/mni-procedure"
					]
				},
				
				"status": "completed",  
				
				"code": {
					"coding": [
						{
							"system": "http://snomed.info/sct",
							"code": "911003", 
							"display": "Removal of subarachnoid-ureteral shunt" 
						}
					],
					"text": "Removal of subarachnoid-ureteral shunt" 
				},
				
				"subject": {
					"reference": "Patient/1" 
				}
			}
		},
		
	
	
	
	
		{
			"fullUrl": "Observation/1", 
			"resource": {
				"resourceType": "Observation",
				
				"id": "1", 
													
				"meta": {
					"profile": [
						"https://mednet.swiss/fhir/StructureDefinition/mni-obs-laboratory"
					]
				},
				
				"status": "final",
				
				"category": [
					{
						"coding": [
							{
								"system": "http://terminology.hl7.org/CodeSystem/observation-category",
								"code": "laboratory",
								"display": "Laboratory"
							}
						]
					}
				],
				
				"code": {
					"coding": [
						{
							"system": "http://loinc.org",
							"code": "46418-0",
							"display": "INR in Capillary blood by Coagulation assay"
						}
					]
				},
				
				"subject": {
					"reference": "Patient/1" 
				},
				
				"valueQuantity": {
					"value": 33,
					"unit": "min", 
					"system": "http://unitsofmeasure.org",
					"code": "min"
				}
			}
		},
		
	
	
	
		{
			"fullUrl": "Observation/2", 
												
			"resource": {
				"resourceType": "Observation",
				
				"id": "2", 
													
				"meta": {
					"profile": [
						"https://mednet.swiss/fhir/StructureDefinition/mni-obs-laboratory"
					]
				},
				
				"status": "final",
				
				"category": [
					{
						"coding": [
							{
								"system": "http://terminology.hl7.org/CodeSystem/observation-category",
								"code": "laboratory",
								"display": "Laboratory"
							}
						]
					}
				],
				
				"code": {
					"coding": [
						{
							"system": "http://loinc.org",
							"code": "77140-2",
							"display": "Creatinine [Moles/volume] in Serum, Plasma or Blood"
						}
					]
				},
				
				"subject": {
					"reference": "Patient/1" 
				},
				
				"valueQuantity": {
					"value": 0.84,
					"unit": "mmol/L", 
					"system": "http://unitsofmeasure.org",
					"code": "mmol/L"
				}
			}
		},
		
	
	
	
		{
			"fullUrl": "Observation/3", 
												
			"resource": {
				"resourceType": "Observation",
				
				"id": "3", 
													
				"meta": {
					"profile": [
						"https://mednet.swiss/fhir/StructureDefinition/mni-obs-laboratory"
					]
				},
				
				"status": "final",
				
				"category": [
					{
						"coding": [
							{
								"system": "http://terminology.hl7.org/CodeSystem/observation-category",
								"code": "laboratory",
								"display": "Laboratory"
							}
						]
					}
				],
				
				"code": {
					"coding": [
						{
							"system": "http://loinc.org",
							"code": "4535-1",
							"display": "Cytotoxic percent reactive Ab [Presence] in Serum by Quick method"
						}
					]
				},
				
				"subject": {
					"reference": "Patient/1" 
				},
				
				"valueQuantity": {
					"value": 3,
					"unit": "%", 
					"system": "http://unitsofmeasure.org",
					"code": "%"
				}
			}
		},
	
	
	
	
		{
			"fullUrl": "Observation/4", 
			"resource": {
				"resourceType": "Observation",
				"id": "4", 
				"meta": {
					"profile": [
						"https://mednet.swiss/fhir/StructureDefinition/mni-obs-bodyWeight"
					]
				},
				
				"status": "final",
				
				"category": [
					{
						"coding": [
							{
								"system": "http://terminology.hl7.org/CodeSystem/observation-category",
								"code": "vital-signs",
								"display": "Vital Signs"
							}
						]
					}
				],
				
				"code": {
					"coding": [
						{
							"system": "http://loinc.org",
							"code": "29463-7",
							"display": "Body weight"
						}
					]
				},
				
				"subject": {
					"reference": "Patient/1" 
				},
				
				"effectiveDateTime": "2020-04-24T11:06:00+01:00", 
																					
																						
				"valueQuantity": {
					"value": 70,
					"unit": "kg", 
					"system": "http://unitsofmeasure.org",
					"code": "kg" 
				}
			}
		},
		
	
	
	
		{
			"fullUrl": "Observation/5", 
			"resource": {
				"resourceType": "Observation",
				"id": "5", 
				"meta": {
					"profile": [
						"https://mednet.swiss/fhir/StructureDefinition/mni-obs-bodyHeight"
					]
				},
				
				"status": "final",
				
				"category": [
					{
						"coding": [
							{
								"system": "http://terminology.hl7.org/CodeSystem/observation-category",
								"code": "vital-signs",
								"display": "Vital Signs"
							}
						]
					}
				],
				
				"code": {
					"coding": [
						{
							"system": "http://loinc.org",
							"code": "8302-2",
							"display": "Body height"
						}
					]
				},
				
				"subject": {
					"reference": "Patient/1" 
				},
				
				"effectiveDateTime": "2020-04-24T11:06:00+01:00", 
																					
																						
				"valueQuantity": {
					"value": 170,
					"unit": "cm", 
					"system": "http://unitsofmeasure.org",
					"code": "cm" 
				}
			}
		},
		
	
	
	
		{
			"fullUrl": "Observation/6", 
												
			"resource": {
				"resourceType": "Observation",
				
				"id": "6", 
													
				"meta": {
					"profile": [
						"https://mednet.swiss/fhir/StructureDefinition/mni-obs-bodyMassIndex"
					]
				},
				
				"status": "final",
				
				"category": [
					{
						"coding": [
							{
								"system": "http://terminology.hl7.org/CodeSystem/observation-category",
								"code": "vital-signs",
								"display": "Vital Signs"
							}
						]
					}
				],
				
				"code": {
					"coding": [
						{
							"system": "http://loinc.org",
							"code": "39156-5",
							"display": "Body mass index (BMI) [Ratio]"
						}
					]
				},
				
				"subject": {
					"reference": "Patient/1" 
				},
				
				"effectiveDateTime": "2020-04-24T11:06:00+01:00", 
																					
				
				"valueQuantity": {
					"value": 24.2,
					"unit": "kg/m2", 
					"system": "http://unitsofmeasure.org",
					"code": "kg/m2"
				}
			}
		},
		
	
	
	
		{
			"fullUrl": "Observation/7", 
												
			"resource": {
				"resourceType": "Observation",
				"id": "7", 
				"meta": {
					"profile": [
						"https://mednet.swiss/fhir/StructureDefinition/mni-obs-bloodPressure"
					]
				},
				
				"status": "final",
				
				"category": [
					{
						"coding": [
							{
								"system": "http://terminology.hl7.org/CodeSystem/observation-category",
								"code": "vital-signs",
								"display": "Vital Signs"
							}
						]
					}
				],
				
				"code": {
					"coding": [
						{
							"system": "http://loinc.org",
							"code": "85354-9",
							"display": "Blood pressure panel with all children optional"
						}
					]
				},
				
				"subject": {
					"reference": "Patient/1" 
				},
				
				"effectiveDateTime": "2020-04-24T11:06:00+01:00", 
																					
																						
				"component" : [ 
					{
						"code" : {
							"coding": [
								{
									"system": "http://loinc.org",
									"code": "8480-6",
									"display": "Systolic blood pressure"
								}
							]
						},
						"valueQuantity": {
							"value": 140,
							"unit": "mm[Hg]", 
							"system": "http://unitsofmeasure.org",
							"code": "mm[Hg]"
						}
					},
					{
						"code" : {
							"coding": [
								{
									"system": "http://loinc.org",
									"code": "8462-4",
									"display": "Diastolic blood pressure"
								}
							]
						},
						"valueQuantity": {
							"value": 90,
							"unit": "mm[Hg]", 
							"system": "http://unitsofmeasure.org",
							"code": "mm[Hg]"
						}
					}
				]
			}
			
		},
		
		
	
	
	
		{
			"fullUrl": "Observation/8", 
												
			"resource": {
				"resourceType": "Observation",
				"id": "8", 
				"meta": {
					"profile": [
						"https://mednet.swiss/fhir/StructureDefinition/mni-obs-bloodGroup"
					]
				},
				
				"status": "final",
				
				"category": [
					{
						"coding": [
							{
								"system": "http://terminology.hl7.org/CodeSystem/observation-category",
								"code": "vital-signs",
								"display": "Vital Signs"
							}
						]
					}
				],
				
				"code": {
					"coding": [
						{
							"system": "http://loinc.org",
							"code": "883-9",
							"display": "ABO group [Type] in Blood"
						}
					]
				},
				
				"subject": {
					"reference": "Patient/1" 
				},
				
				"effectiveDateTime": "2020-04-24T11:06:00+01:00", 
																					
																						
				"valueCodeableConcept": {
					"coding": [ 
						{	
							"system": "http://snomed.info/sct",
							"code": "112144000",
							"display": "Blood group A (finding)"
						},
						{
							"system": "https://mednet.swiss/fhir/CodeSystem/mni-obs-bloodGroup",
							"code": "A",
							"display": "Blood group A"
						}
					]
				}
			}
		
		},
		
	
	
	
	
		{
			"fullUrl": "Observation/9", 
												
			"resource": {
				"resourceType": "Observation",
				
				"id": "9", 
													
				"meta": {
					"profile": [
						"https://mednet.swiss/fhir/StructureDefinition/mni-obs-riskFactor"
					]
				},
				
				"status": "final",
				
				"category": [
					{
						"coding": [
							{
								"system": "http://terminology.hl7.org/CodeSystem/observation-category",
								"code": "social-history",
								"display": "Social History"
							}
						]
					}
				],
				
				"code": {
					"coding": [
						{
							"system": "http://snomed.info/sct",
							"code": "80943009",
							"display": "Risk Factor"
						}
					]
				},
				
				"valueCodeableConcept": {
					"coding": [
						{
							"system": "http://snomed.info/sct",
							"code": "77176002", 
							"display": "Smoker" 
						}
					],
					"text": "Smoker" 
				},
				
				"subject": {
					"reference": "Patient/1" 
				}
			}
		},
		
	
	
	
		{
			"fullUrl": "Observation/10", 
												
			"resource": {
				"resourceType": "Observation",
				
				"id": "10", 
				
				"meta": {
					"profile": [
						"https://mednet.swiss/fhir/StructureDefinition/mni-obs-riskFactor"
					]
				},
				
				"status": "final",
				
				"category": [
					{
						"coding": [
							{
								"system": "http://terminology.hl7.org/CodeSystem/observation-category",
								"code": "social-history",
								"display": "Social History"
							}
						]
					}
				],
				
				"code": {
					"coding": [
						{
							"system": "http://snomed.info/sct",
							"code": "80943009",
							"display": "Risk Factor"
						}
					]
				},
				
				"valueCodeableConcept": {
					"coding": [
						{
							"system": "http://snomed.info/sct",
							"code": "38341003", 
							"display": "Hypertensive disorder, systemic arterial (disorder)" 
						}
					],
					"text": "Hypertensive disorder, systemic arterial (disorder)" 
				},
				
				"subject": {
					"reference": "Patient/1" 
				}
			}
		},
		
	
	
	
		{
			"fullUrl": "FamilyMemberHistory/1", 
												
			"resource": {
				"resourceType": "FamilyMemberHistory",
				
				"id": "1", 
													
				"meta": {
					"profile": [
						"https://mednet.swiss/fhir/StructureDefinition/mni-familyMemberHistory"
					]
				},
				
				"status": "completed",
				
				"patient": {
					"reference": "Patient/1" 
				},
				
				"relationship": {
					"coding": [
						{
							"system": "http://terminology.hl7.org/CodeSystem/v3-RoleCode",
							"code": "FTH",
							"display": "father" 
						}
					],
					"text": "Father of the patient" 
				},
				
				"deceasedAge": {
					"value": 60,
					"unit": "years",
					"system": "http://unitsofmeasure.org",
					"code": "a"
				},
				
				"condition": [
					{
						"code": {
							"coding": [
								{
									"system": "http://snomed.info/sct",
									"code": "1419004",
									"display": "Injury of prostate without open wound into abdominal cavity" 
								}
							],
							"text": "Injury of prostate without open wound into abdominal cavity" 
						},
						"contributedToDeath": true
					},
					{
						"code": {
							"coding": [
								{
									"system": "http://snomed.info/sct",
									"code": "409002",
									"display": "Food allergy diet" 
								}
							],
							"text": "Food allergy diet" 
						}
					}
				]
			}
		},
		
	
	
	
		{
			"fullUrl": "FamilyMemberHistory/2", 
												
			"resource": {
				"resourceType": "FamilyMemberHistory",
				
				"id": "2", 
													
				"meta": {
					"profile": [
						"https://mednet.swiss/fhir/StructureDefinition/mni-familyMemberHistory"
					]
				},
				
				"status": "completed",
				
				"patient": {
					"reference": "Patient/1" 
				},
				
				"relationship": {
					"coding": [
						{
							"system": "http://terminology.hl7.org/CodeSystem/v3-RoleCode",
							"code": "SON",
							"display": "natural son" 
						}
					],
					"text": "Son of the patient" 
				},
				
				"condition": [
					{
						"code": {
							"coding": [
								{
									"system": "http://snomed.info/sct",
									"code": "93880001",
									"display": "Primary malignant neoplasm of lung (disorder)" 
								}
							],
							"text": "Primary malignant neoplasm of lung (disorder)" 
						}
					}
				]
			}
		},
		
	
	
	
		{
			"fullUrl": "Observation/11", 
			
			"resource": {
				"resourceType": "Observation",
				
				"id": "11", 
				
				"meta": {
					"profile": [
						"https://mednet.swiss/fhir/StructureDefinition/mni-obs-estimatedDateOfConception"
					]
				},
				
				"status": "final",
				
				"code": {
					"coding": [
						{
							"system": "http://snomed.info/sct",
							"code": "248986005",
							"display": "Estimated date of conception"
						}
					]
				},
				
				"subject": {
					"reference": "Patient/1" 
				},
				
				"valueDateTime": "2020-01-01" 
			}
		},
		
	
	
	
		{
			"fullUrl": "Observation/12", 
			
			"resource": {
				"resourceType": "Observation",
				
				"id": "12", 
				
				"meta": {
					"profile": [
						"https://mednet.swiss/fhir/StructureDefinition/mni-obs-estimatedDateOfDelivery"
					]
				},
				
				"status": "final",
				
				"code": {
					"coding": [
						{
							"system": "http://snomed.info/sct",
							"code": "161714006",
							"display": "Estimated date of delivery"
						}
					]
				},
				
				"subject": {
					"reference": "Patient/1" 
				},
				
				"valueDateTime": "2020-09-01" 
			}
		},
		
		
	
	
	
		{
			"fullUrl": "Observation/13", 
												
			"resource": {
				"resourceType": "Observation",
				
				"id": "13", 
				
				"meta": {
					"profile": [
						"https://mednet.swiss/fhir/StructureDefinition/mni-obs-dateOfLastMenstruation"
					]
				},
				
				"status": "final",
				
				"code": {
					"coding": [
						{
							"system": "http://snomed.info/sct",
							"code": "161713000",
							"display": "Last menstrual period - First day"
						}
					]
				},
				
				"subject": {
					"reference": "Patient/1" 
				},
				
				"valueDateTime": "2019-12-20" 
			}
		},
		
	
	
	
		{
			"fullUrl": "Observation/14", 
												
			"resource": {
				"resourceType": "Observation",
				
				"id": "14", 
				
				"meta": {
					"profile": [
						"https://mednet.swiss/fhir/StructureDefinition/mni-obs-timeOfGestation"
					]
				},
				
				"status": "final",
				
				"code": {
					"coding": [
						{
							"system": "http://snomed.info/sct",
							"code": "445872007",
							"display": "Length of gestation at time of procedure"
						}
					]
				},
				
				"subject": {
					"reference": "Patient/1" 
				},
				
				"valueQuantity": 
					{
						"value": 17,
						"unit": "wk", 
						"system": "http://unitsofmeasure.org",
						"code": "wk" 
					}
				
			}
		},
		
		
	
	
	
		{
			"fullUrl": "DocumentReference/1", 
			"resource": {
				"resourceType": "DocumentReference",
				
				"id": "1", 
													
				"meta": {
					"profile": [
						"https://mednet.swiss/fhir/StructureDefinition/mni-documentReference"
					]
				},
				
				"status": "current",
				
				"type" : {
					"coding": [
						{
							"system": "http://snomed.info/sct",
							"code": "722446000", 
							"display": "Allergy record (record artifact)" 
						}
					]
				},
				
				"category" : [
					{
						"coding": [
							{
								"system": "http://snomed.info/sct",
								"code": "371531000", 
								"display": "Report of clinical encounter (record artifact)" 
							}
						]
					}
				],
				
				"content": [
					{
						"attachment": {
							"contentType": "application/pdf",
							"data": "", 
							"title": "First report",
							"creation": "2019-12-20" 
						}
					}
				]
			}
		},
		
	
	
	
		{
			"fullUrl": "DocumentReference/2", 
			"resource": {
				"resourceType": "DocumentReference",
				
				"id": "2", 
													
				"meta": {
					"profile": [
						"https://mednet.swiss/fhir/StructureDefinition/mni-documentReference"
					]
				},
				
				"status": "current",
				
				"type" : {
					"coding": [
						{
							"system": "http://snomed.info/sct",
							"code": "4241000179101", 
							"display": "Laboratory report (record artifact)" 
						}
					]
				},
				
				"category" : [
					{
						"coding": [
							{
								"system": "http://snomed.info/sct",
								"code": "422735006", 
								"display": "Summary clinical document (record artifact)" 
							}
						]
					}
				],
				
				"content": [
					{
						"attachment": {
							"contentType": "application/pdf",
							"url": "./document2.pdf", 
							"title": "Second report",
							"creation": "2018-10-10" 
						}
					}
				]
			}
		},
		
	
	
	
		{
			"fullUrl": "DocumentReference/3", 
												
			"resource": {
				"resourceType": "DocumentReference",
				
				"id": "3", 
													
				"meta": {
					"profile": [
						"https://mednet.swiss/fhir/StructureDefinition/mni-documentReference"
					]
				},
				
				"status": "current",
				
				"content": [
					{
						"attachment": {
							"contentType": "application/pdf",
							"url": "./document3.pdf", 
							"title": "Third report",
							"creation": "2018-10-08" 
						}
					}
				]
			}
		}
	]
}
