<Bundle xmlns="http://hl7.org/fhir">
	<identifier>
		<system value="http://zrbj.eu/NamingSystem/GitHub-Issue"/>
		<value value="1488"/>
	</identifier>
	<type value="document"/>
	<timestamp value="2023-11-11T07:34:12Z"/>
	<entry>
		<fullUrl value="urn:uuid:0f3d28ae-4c27-49eb-987d-c35d536b40f8"/>
		<resource>
			<Composition>
				<status value="final"/>
				<type>
					<coding>
						<system value="http://loinc.org"/>
						<code value="11502-2"/>
					</coding>
				</type>
				<subject>
					<reference value="urn:uuid:0f3d28ae-4c27-49eb-987d-c35d536b40f8"/>
				</subject>
				<subject>
					<reference value="urn:uuid:13ed3afe-3d31-4148-8e95-dd62d140da57"/>
				</subject>
				<date value="2023-11-14"/>
				<author>
					<reference value="urn:uuid:13ed3afe-3d31-4148-8e95-dd62d140da57"/>
				</author>
				<title value="."/>
			</Composition>
		</resource>
	</entry>
	<entry>
		<fullUrl value="urn:uuid:13ed3afe-3d31-4148-8e95-dd62d140da57"/>
		<resource>
			<Organization>
				<name value="Zrbj Laboratories"/>
			</Organization>
		</resource>
	</entry>
</Bundle>
