{
  "resourceType" : "Bundle",
  "id" : "SampleLabelerCodeRequestBundle",
  "type" : "message",
  "timestamp" : "2021-08-11T01:01:01.111+06:00",
  "entry" : [
    {
      "fullUrl" : "http://example.org/MessageHeader/LabelerCodeRequestMessage",
      "resource" : {
        "resourceType" : "MessageHeader",
        "id" : "SampleLabelerCodeRequestMessage",
        "text" : {
          "status" : "generated",
          "div" : "<div xmlns=\"http://www.w3.org/1999/xhtml\"><p><b>Generated Narrative</b></p><p><b>event</b>: <span title=\"{http://loinc.org 51726-8}\">NDC labeler code request</span></p><h3>Sources</h3><table class=\"grid\"><tr><td>-</td><td><b>Endpoint</b></td></tr><tr><td>*</td><td><a href=\"http://example.org/\">http://example.org/</a></td></tr></table><p><b>focus</b>: <a href=\"#Organization_SampleLabelerOrganization\">See above (Organization/SampleLabelerOrganization)</a></p></div>"
        },
        "eventCoding" : {
          "system" : "http://loinc.org",
          "code" : "51726-8",
          "display" : "NDC labeler code request"
        },
        "source" : {
          "endpoint" : "http://example.org/"
        },
        "focus" : [
          {
            "reference" : "Organization/SampleLabelerOrganization"
          }
        ]
      }
    },
    {
      "fullUrl" : "http://example.org/Organization/SampleLabelerOrganization",
      "resource" : {
        "resourceType" : "Organization",
        "id" : "SampleLabelerOrganization",
        "text" : {
          "status" : "generated",
          "div" : "<div xmlns=\"http://www.w3.org/1999/xhtml\"><p><b>Generated Narrative</b></p><p><b>identifier</b>: id: 999999999, id: 55555</p><p><b>type</b>: <span title=\"Codes: {http://hl7.org/fhir/us/spl/CodeSystem/codesystem-organizationTypes Labeler}\">An organization that submits product labels.</span></p><p><b>name</b>: National Pharma of India Inc.</p><p><b>address</b>: Plot 102 Village Ave RangareddyDistrict Telangana 500002 IND </p><h3>Contacts</h3><table class=\"grid\"><tr><td>-</td><td><b>Name</b></td><td><b>Telecom</b></td><td><b>Address</b></td></tr><tr><td>*</td><td>Mr. John Doe_1</td><td><a href=\"tel:+9-140-1111-2222\">+9-140-1111-2222</a>, <a href=\"mailto:jdoe_1@npoiinc.net\">jdoe_1@npoiinc.net</a></td><td>Plot 101 First Street RangareddyDistrict Telangana 500001 IND </td></tr></table></div>"
        },
        "contained" : [
          {
            "resourceType" : "OrganizationAffiliation",
            "id" : "SampleLabelerUSAgentAffiliation",
            "organization" : {
              "reference" : "#"
            },
            "participatingOrganization" : {
              "reference" : "#usagent"
            },
            "code" : [
              {
                "coding" : [
                  {
                    "system" : "http://ncicb.nci.nih.gov/xml/owl/EVS/Thesaurus.owl",
                    "code" : "C73330",
                    "display" : "Foreign Facility's United States Agent"
                  }
                ]
              }
            ]
          },
          {
            "resourceType" : "Organization",
            "id" : "usagent",
            "identifier" : [
              {
                "system" : "urn:oid:1.3.6.1.4.1.519.1",
                "value" : "888888888"
              }
            ],
            "type" : [
              {
                "coding" : [
                  {
                    "system" : "http://example.org/fhir/us/spl/CodeSystem/codesystem-organizationTypes",
                    "code" : "USAgent"
                  }
                ]
              }
            ],
            "name" : "National Pharma of India Inc. US Agent",
            "telecom" : [
              {
                "system" : "phone",
                "value" : "+1-908-999-1212"
              },
              {
                "system" : "email",
                "value" : "jdoe_2@npoiinc.net"
              }
            ]
          },
          {
            "resourceType" : "HealthcareService",
            "id" : "SampleLabelerBusinessOperation",
            "providedBy" : {
              "reference" : "#"
            },
            "type" : [
              {
                "coding" : [
                  {
                    "system" : "http://ncicb.nci.nih.gov/xml/owl/EVS/Thesaurus.owl",
                    "code" : "C43360",
                    "display" : "manufacture"
                  }
                ]
              }
            ],
            "serviceProvisionCode" : [
              {
                "coding" : [
                  {
                    "system" : "http://ncicb.nci.nih.gov/xml/owl/EVS/Thesaurus.owl",
                    "code" : "C106643",
                    "display" : "Manufactures human prescription drug products"
                  }
                ]
              }
            ]
          }
        ],
        "identifier" : [
          {
            "system" : "urn:oid:1.3.6.1.4.1.519.1",
            "value" : "999999999"
          },
          {
            "system" : "urn:oid:2.16.840.1.113883.6.69",
            "value" : "55555"
          }
        ],
        "type" : [
          {
            "coding" : [
              {
                "system" : "http://example.org/fhir/us/spl/CodeSystem/codesystem-organizationTypes",
                "code" : "Labeler"
              }
            ]
          }
        ],
        "name" : "National Pharma of India Inc.",
        "address" : [
          {
            "line" : [
              "Plot 102 Village Ave"
            ],
            "city" : "RangareddyDistrict",
            "state" : "Telangana",
            "postalCode" : "500002",
            "country" : "IND"
          }
        ],
        "contact" : [
          {
            "name" : {
              "text" : "Mr. John Doe_1"
            },
            "telecom" : [
              {
                "system" : "phone",
                "value" : "+9-140-1111-2222"
              },
              {
                "system" : "email",
                "value" : "jdoe_1@npoiinc.net"
              }
            ],
            "address" : {
              "line" : [
                "Plot 101 First Street"
              ],
              "city" : "RangareddyDistrict",
              "state" : "Telangana",
              "postalCode" : "500001",
              "country" : "IND"
            }
          }
        ]
      }
    }
  ]
}