{
  "resourceType": "Bundle",
  "identifier": {
    "system": "urn:ietf:rfc:4122",
    "value": "4f0a749d-87af-46ad-adb8-bec181f01106"
  },
  "type": "document",
  "timestamp": "2023-01-15T18:35:00.448+00:00",
  "entry": [
    {
      "fullUrl": "urn:uuid:a6a8a8e6-415c-42e1-abf7-f8d876e5908b",
      "resource": {
        "resourceType": "Composition",
        "status": "final",
        "type": {
          "coding": [
            {
              "system": "http://loinc.org",
              "code": "60591-5",
              "display": "Patient Summary Document"
            }
          ]
        },
        "subject": {
          "reference": "Patient/98549f1a-e0d5-4454-849c-f5b97d3ed299"
        },
        "date": "2023-01-15T18:35:00+00:00",
        "author": [
          {
            "reference": "urn:uuid:5277b703-de58-47a5-8df2-198aa8a8fb72"
          }
        ],
        "title": "Patient Summary as of 01/15/2023",
        "confidentiality": "N",
        "section": [
          {
            "title": "Allergies and Intolerances",
            "code": {
              "coding": [
                {
                  "system": "http://loinc.org",
                  "code": "48765-2",
                  "display": "Allergies and adverse reactions Document"
                }
              ]
            },
            "text": {
              "status": "generated",
              "div": "<div xmlns='http://www.w3.org/1999/xhtml' lang='en-NZ' xml:lang='en-NZ'>There is no information available regarding the subject's allergy conditions.</div>"
            },
            "entry": [
              {
                "reference": "AllergyIntolerance/e198be1e-9861-46af-9d97-841ef9f7c707"
              }
            ]
          },
          {
            "title": "Medication List",
            "code": {
              "coding": [
                {
                  "system": "http://loinc.org",
                  "code": "10160-0",
                  "display": "History of Medication use Narrative"
                }
              ]
            },
            "text": {
              "status": "generated",
              "div": "<div xmlns=\"http://www.w3.org/1999/xhtml\"><table class=\"hapiPropertyTable\"><caption>Medication Summary: Medication Statements</caption><thead><tr><th>Medication</th><th>Status</th><th>Route</th><th>Sig</th><th>Date</th></tr></thead><tbody><tr id=\"MedicationSummary-d41ac499-c7e8-45fa-9246-69028bae178f\"><td>Oxymetazoline hydrochloride  0.05 mg / 1 ml Spray</td><td>Active</td><td> Nasal use </td><td /><td /></tr></tbody></table></div>"
            },
            "entry": [
              {
                "reference": "MedicationStatement/d41ac499-c7e8-45fa-9246-69028bae178f"
              }
            ]
          },
          {
            "title": "Problem List",
            "code": {
              "coding": [
                {
                  "system": "http://loinc.org",
                  "code": "11450-4",
                  "display": "Problem list - Reported"
                }
              ]
            },
            "text": {
              "status": "generated",
              "div": "<div xmlns='http://www.w3.org/1999/xhtml' lang='en-NZ' xml:lang='en-NZ'>There is no information available about the subject's health problems or disabilities.</div>"
            },
            "entry": [
              {
                "reference": "Condition/da138a5d-633f-493f-9485-e5af1320db5b"
              }
            ]
          }
        ]
      }
    },
    {
      "fullUrl": "urn:uuid:98549f1a-e0d5-4454-849c-f5b97d3ed299",
      "resource": {
        "resourceType": "Patient",
        "id": "98549f1a-e0d5-4454-849c-f5b97d3ed299",
        "meta": {
          "versionId": "1",
          "lastUpdated": "2022-09-27T15:21:51.306+00:00",
          "source": "#jFE6f3a0zoZFHfj5"
        },
        "text": {
          "status": "generated",
          "div": "<div xmlns=\"http://www.w3.org/1999/xhtml\"><div class=\"hapiHeaderText\">Maria <b>GRAVITATE </b></div><table class=\"hapiPropertyTable\"><tbody><tr><td>Identifier</td><td>maria-1</td></tr><tr><td>Date of birth</td><td><span>05 May 1946</span></td></tr></tbody></table></div>"
        },
        "extension": [ {
          "url": "http://hl7.org/fhir/StructureDefinition/patient-citizenship",
          "extension": [ {
            "url": "code",
            "valueCodeableConcept": {
              "coding": [ {
                "system": "urn:iso:std:iso:3166",
                "code": "NO",
                "display": "Norway"
              } ]
            }
          } ]
        } ],
        "identifier": [ {
          "system": "https://www.gravitatehealth.eu/sid/doc",
          "value": "maria-1"
        } ],
        "active": true,
        "name": [ {
          "family": "Gravitate",
          "given": [ "Maria" ]
        } ],
        "gender": "female",
        "birthDate": "1946-05-05"
      }
    },
    {
      "fullUrl": "urn:uuid:d41ac499-c7e8-45fa-9246-69028bae178f",
      "resource": {
        "resourceType": "MedicationStatement",
        "id": "d41ac499-c7e8-45fa-9246-69028bae178f",
        "meta": {
          "versionId": "1",
          "lastUpdated": "2022-09-27T15:22:04.319+00:00",
          "source": "#wOHXO3dHsmGHTjyu"
        },
        "extension": [
          {
            "url": "http://hl7.org/fhir/StructureDefinition/NarrativeLink",
            "valueUri": "urn:uuid:a6a8a8e6-415c-42e1-abf7-f8d876e5908b#MedicationSummary-d41ac499-c7e8-45fa-9246-69028bae178f"
          }
        ],
        "status": "active",
        "medicationCodeableConcept": {
          "coding": [
            {
              "system": "http://www.nlm.nih.gov/research/umls/rxnorm",
              "code": "1000990",
              "display": "oxymetazoline hydrochloride 0.5 MG/ML Nasal Spray"
            }
          ]
        },
        "subject": {
          "reference": "Patient/98549f1a-e0d5-4454-849c-f5b97d3ed299",
          "display": "Maria Gravitate"
        },
        "dosage": [
          {
            "route": {
              "coding": [
                {
                  "system": "http://standardterms.edqm.eu",
                  "code": "20049000",
                  "display": "Nasal use"
                }
              ]
            }
          }
        ]
      }
    },
    {
      "fullUrl": "urn:uuid:e198be1e-9861-46af-9d97-841ef9f7c707",
      "resource": {
        "resourceType": "AllergyIntolerance",
        "id": "e198be1e-9861-46af-9d97-841ef9f7c707",
        "clinicalStatus": {
          "coding": [
            {
              "system": "http://terminology.hl7.org/CodeSystem/allergyintolerance-clinical",
              "code": "active"
            }
          ]
        },
        "code": {
          "coding": [
            {
              "system": "http://hl7.org/fhir/uv/ips/CodeSystem/absent-unknown-uv-ips",
              "code": "no-allergy-info",
              "display": "No information about allergies"
            }
          ]
        },
        "patient": {
          "reference": "Patient/98549f1a-e0d5-4454-849c-f5b97d3ed299"
        }
      }
    },
    {
      "fullUrl": "urn:uuid:da138a5d-633f-493f-9485-e5af1320db5b",
      "resource": {
        "resourceType": "Condition",
        "id": "da138a5d-633f-493f-9485-e5af1320db5b",
        "clinicalStatus": {
          "coding": [
            {
              "system": "http://terminology.hl7.org/CodeSystem/condition-clinical",
              "code": "active"
            }
          ]
        },
        "code": {
          "coding": [
            {
              "system": "http://hl7.org/fhir/uv/ips/CodeSystem/absent-unknown-uv-ips",
              "code": "no-problem-info",
              "display": "No information about problems"
            }
          ]
        },
        "subject": {
          "reference": "Patient/98549f1a-e0d5-4454-849c-f5b97d3ed299"
        }
      }
    },
    {
      "fullUrl": "urn:uuid:5277b703-de58-47a5-8df2-198aa8a8fb72",
      "resource": {
        "resourceType": "Organization",
        "name": "More Informatics, Inc",
        "address": [
          {
            "line": [
              "59 Washington St."
            ],
            "city": "Wellesley",
            "state": "MA",
            "postalCode": "02481",
            "country": "USA"
          }
        ]
      }
    }
  ]
}