{
  "resourceType" : "DocumentManifest",
  "id" : "DocumentManifest-ref1-stu3-example",
  "text" : {
    "status" : "generated",
    "div" : "<div xmlns=\"http://www.w3.org/1999/xhtml\">This is a SubmissionSet from DocumentManifest</div>"
  },
  "contained" : [
    {
      "resourceType" : "Practitioner",
      "id" : "3",
      "name" : [
        {
          "family" : "Pfirter",
          "given" : [
            "Urs"
          ]
        }
      ]
    },
    {
      "resourceType" : "Practitioner",
      "id" : "4",
      "name" : [
        {
          "family" : "Gesundmacher",
          "given" : [
            "Franz"
          ]
        }
      ]
    },
    {
      "resourceType" : "Patient",
      "id" : "5",
      "identifier" : [
        {
          "system" : "urn:oid:2.16.756.5.30.1.221.3.1.2.3.1.1",
          "value" : "urn:uuid:88153369-e217-44d2-939d-f5ad9af7f763"
        }
      ]
    },
    {
      "resourceType" : "Practitioner",
      "id" : "1",
      "name" : [
        {
          "family" : "Pfirter",
          "given" : [
            "Urs"
          ]
        }
      ]
    },
    {
      "resourceType" : "DocumentReference",
      "id" : "2",
      "masterIdentifier" : {
        "system" : "urn:ietf:rfc:3986",
        "value" : "urn:oid:2.16.756.5.30.1.221.3.1.1.3.1.1.151000087000030010.1622"
      },
      "identifier" : [
        {
          "use" : "official",
          "system" : "urn:ietf:rfc:3986",
          "value" : "urn:uuid:0b7f8d2e-8b7c-618a-68e6-3fb2fe7961d6"
        },
        {
          "system" : "urn:hin:adc:logicalId",
          "value" : "urn:uuid:0b7f8d2e-8b7c-618a-68e6-3fb2fe7961d6"
        }
      ],
      "status" : "current",
      "type" : {
        "coding" : [
          {
            "system" : "http://snomed.info/sct",
            "code" : "419891008",
            "display" : "Record artifact (record artifact)"
          }
        ]
      },
      "category" : [{
        "coding" : [
          {
            "system" : "http://snomed.info/sct",
            "code" : "371525003",
            "display" : "Clinical procedure report (record artifact)"
          }
        ]
      }],
      "subject" : {
        "reference" : "Patient/88153369-e217-44d2-939d-f5ad9af7f763"
      },
      "date" : "2021-05-31T08:39:48.319+02:00",
      "author" : [
        {
          "reference" : "#3"
        }
      ],
      "authenticator" : {
        "reference" : "#4"
      },
      "description" : "This is a DocumentReference",
      "securityLabel" : [
        {
          "coding" : [
            {
              "system" : "http://snomed.info/sct",
              "code" : "17621005",
              "display" : "Normal (qualifier value)"
            }
          ]
        }
      ],
      "content" : [
        {
          "attachment" : {
            "id" : "2.16.756.5.30.1.221.3.1.1.3.1.1.151000087000030010.1622",
            "contentType" : "application/pdf",
            "language" : "de-CH",
            "size" : 25982,
            "hash" : "YWRmM2MxMzFkOTgzOGQ4MDc4ZTQyZmJkODAyZjcyNDZjNjk3MWIxOA==",
            "title" : "ExamplePDF.pdf",
            "creation" : "2021-05-31T08:39:00+02:00"
          },
          "format" : {
            "system" : "http://ihe.net/fhir/ihe.formatcode.fhir/CodeSystem/formatcode",
            "code" : "urn:ihe:iti:xds:2017:mimeTypeSufficient",
            "display" : "MimeType sufficient"
          }
        }
      ],
      "context" : {
        "event" : [
          {
            "coding" : [
              {
                "system" : "urn:oid:1.2.840.10008.2.16.4",
                "code" : "US",
                "display" : "Ultrasound"
              }
            ]
          }
        ],
        "period" : {
          "start" : "2017-04-10T08:39:00+02:00",
          "end" : "2018-04-10T08:39:00+02:00"
        },
        "facilityType" : {
          "coding" : [
            {
              "system" : "http://snomed.info/sct",
              "code" : "722172003",
              "display" : "Military health institution (environment)"
            }
          ]
        },
        "practiceSetting" : {
          "coding" : [
            {
              "system" : "http://snomed.info/sct",
              "code" : "394609007",
              "display" : "General surgery (qualifier value)"
            }
          ]
        },
        "sourcePatientInfo" : {
          "reference" : "#5"
        }
      }
    }
  ],
  "masterIdentifier" : {
    "system" : "urn:ietf:rfc:3986",
    "value" : "urn:oid:2.16.756.5.30.1.221.3.1.1.3.1.1.127001046021041093.1622"
  },
  "identifier" : [
    {
      "use" : "official",
      "system" : "urn:ietf:rfc:3986",
      "value" : "urn:uuid:987c14e2-490a-4cba-bf43-2bf4ccc134a8"
    }
  ],
  "status" : "current",
  "type" : {
    "coding" : [
      {
        "system" : "http://snomed.info/sct",
        "code" : "71388002",
        "display" : "Procedure (procedure)"
      }
    ]
  },
  "subject" : {
    "reference" : "Patient/88153369-e217-44d2-939d-f5ad9af7f763"
  },
  "created" : "2021-05-31T08:39:00+02:00",
  "author" : [
    {
      "reference" : "#1"
    }
  ],
  "source" : "urn:oid:2.16.756.5.30.1.221.3.1.1.3.1.1",
  "description" : "MyDocumentSet",
  "content" : [
    {
      "reference" : "#2"
    }
  ]
}
