{
    "resourceType": "Bundle",
    "id": "NZ-IPS-20231009024857",
    "language": "en-NZ",
    "identifier": {
        "system": "urn:oid:2.16.724.4.8.10.200.10",
        "value": "59f51f0b-2005-485c-858e-3d3ae9657287"
    },
    "type": "document",
    "timestamp": "2023-10-09T02:48:57.4219686+00:00",
    "entry": [
        {
            "fullUrl": "https://terminz.azurewebsites.net/fhir/Composition/d2d5d4dd-4e86-41c6-98d2-e412882e9b4c",
            "resource": {
                "resourceType": "Composition",
                "id": "d2d5d4dd-4e86-41c6-98d2-e412882e9b4c",
                "meta": {
                    "versionId": "1"
                },
                "language": "en-NZ",
                "text": {
                    "status": "generated",
                    "div": "<div xmlns='http://www.w3.org/1999/xhtml' lang='en-NZ' xml:lang='en-NZ'>International Patient Summary for <span id=\"AAA1234\">James</span> Judge, <span id=\"AAA1234X\">NHI AAA1234</span></div>",
                    "extension" : [{
                        "url" : "http://hl7.org/fhir/StructureDefinition/textLink",
                        "extension" : [{
                          "url" : "htmlid",
                          "valueString" : "AAA1234"
                        },{
                            "url" : "data",
                            "valueUri" : "#AAA1234"
                        }]
                    },{
                        "url" : "http://hl7.org/fhir/StructureDefinition/textLink",
                        "extension" : [{
                          "url" : "htmlid",
                          "valueString" : "AAA1234XJ"
                        },{
                            "url" : "data",
                            "valueUri" : "#AAA1234XJ"
                        }]
                    }]
                },
                "identifier": {
                    "system": "urn:oid:2.16.840.1.113883.2.18.7.2",
                    "value": "59f51f0b-2005-485c-858e-3d3ae9657287"
                },
                "status": "final",
                "type": {
                    "coding": [
                        {
                            "system": "http://loinc.org",
                            "code": "60591-5",
                            "display": "Patient summary Document"
                        }
                    ]
                },
                "subject": {
                    "reference": "Patient/AAA1234"
                },
                "date": "2021-05-03",
                "author": [
                    {
                        "reference": "Organization/03993b0c-87ae-478b-8556-8c52a68c3486"
                    }
                ],
                "title": "International Patient Summary",
                "confidentiality": "N",
                "attester": [
                    {
                        "mode": "professional",
                        "time": "2021-05-03",
                        "party": {
                            "reference": "PractitionerRole/1153dc30-cf69-402f-9522-132ec9ec14ac"
                        }
                    }
                ],
                "custodian": {
                    "reference": "Organization/15d2d767-48ba-4222-a1ca-8fa34393aed4"
                },
                "relatesTo": [
                    {
                        "code": "transforms",
                        "targetIdentifier": {
                            "system": "urn:oid:2.16.840.1.113883.2.18.7.2",
                            "value": "59f51f0b-2005-485c-858e-3d3ae9657287"
                        }
                    }
                ],
                "event": [
                    {
                        "code": [
                            {
                                "coding": [
                                    {
                                        "system": "http://terminology.hl7.org/CodeSystem/v3-ActClass",
                                        "code": "PCPR"
                                    }
                                ]
                            }
                        ],
                        "period": {
                            "end": "2021-05-03"
                        }
                    }
                ],
                "section": [
                    {
                        "title": "Allergies and Intolerances",
                        "code": {
                            "coding": [
                                {
                                    "system": "http://loinc.org",
                                    "code": "48765-2",
                                    "display": "Allergies and adverse reactions Document"
                                }
                            ]
                        },
                        "text": {
                            "status": "generated",
                            "div": "<div xmlns='http://www.w3.org/1999/xhtml' lang='en-NZ' xml:lang='en-NZ'>There is no information available regarding the subject's allergy conditions.</div>"
                        },
                        "entry": [
                            {
                                "reference": "AllergyIntolerance/d46cc177-5660-46cc-9f55-6c28e1bc3bba"
                            }
                        ]
                    },
                    {
                        "title": "Problem List",
                        "code": {
                            "coding": [
                                {
                                    "system": "http://loinc.org",
                                    "code": "11450-4",
                                    "display": "Problem list - Reported"
                                }
                            ]
                        },
                        "text": {
                            "status": "generated",
                            "div": "<div xmlns='http://www.w3.org/1999/xhtml' lang='en-NZ' xml:lang='en-NZ'>There is no information available about the subject's health problems or disabilities.</div>"
                        },
                        "entry": [
                            {
                                "reference": "Condition/20a587fa-239f-49c2-a3c8-ff2f2a18b654"
                            }
                        ]
                    },
                    {
                        "title": "Medication Summary",
                        "code": {
                            "coding": [
                                {
                                    "system": "http://loinc.org",
                                    "code": "10160-0",
                                    "display": "History of Medication use Narrative"
                                }
                            ]
                        },
                        "text": {
                            "status": "generated",
                            "div": "<div xmlns='http://www.w3.org/1999/xhtml' lang='en-NZ' xml:lang='en-NZ'>There is no information available about the subject's medication use or administration.</div>"
                        },
                        "entry": [
                            {
                                "reference": "MedicationStatement/4e348646-0375-486a-a33d-d19801e6c7f7"
                            }
                        ]
                    },
                    {
                        "title": "Immunizations",
                        "code": {
                            "coding": [
                                {
                                    "system": "http://loinc.org",
                                    "code": "11369-6",
                                    "display": "History of Immunization Narrative"
                                }
                            ]
                        },
                        "text": {
                            "status": "generated",
                            "div": "<div xmlns=\"http://www.w3.org/1999/xhtml\">\r\n  <table>\r\n    <thead>\r\n      <tr>\r\n        <th>Vaccine</th>\r\n        <th>Status</th>\r\n        <th>Occurance</th>\r\n        <th>Route</th>\r\n        <th>Dose #</th>\r\n        <th>Series</th>\r\n      </tr>\r\n    </thead>\r\n    <tbody>\r\n      <tr>\r\n        <td>Influenza, split virus, trivalent, preservative</td>\r\n        <td>Completed</td>\r\n        <td>2020-07-03</td>\r\n        <td>Injection, intramuscular</td>\r\n        <td>2</td>\r\n        <td>45y (Eligible condition (Influenza))</td>\r\n      </tr>\r\n      <tr>\r\n        <td>Influenza, split virus, trivalent, preservative</td>\r\n        <td>Completed</td>\r\n        <td>2019-06-03</td>\r\n        <td>Injection, intramuscular</td>\r\n        <td>1</td>\r\n        <td>45y (Eligible condition (Influenza))</td>\r\n      </tr>\r\n    </tbody>\r\n  </table>\r\n</div>"
                        },
                        "entry": [
                            {
                                "reference": "Immunization/c5efb4c3-91cf-4f63-b176-a697215d727a"
                            },
                            {
                                "reference": "Immunization/f58b2627-eeac-4280-8475-195ae422aa2d"
                            }
                        ]
                    }
                ]
            }
        },
        {
            "fullUrl": "https://terminz.azurewebsites.net/fhir/Patient/AAA1234",
            "resource": {
                "resourceType": "Patient",
                "id": "AAA1234",
                "text": {
                    "status": "generated",
                    "div": "<div xmlns='http://www.w3.org/1999/xhtml' xml:lang='en-NZ'>Name: James Judge</div>"
                },
                "identifier": [
                    {
                        "id" : "AAA1234X",
                        "system": "https://standards.digital.health.nz/ns/nhi-id",
                        "value": "AAA1234"
                    }
                ],
                "name": [
                    {
                        "use": "usual",
                        "family": "Judge",
                        "given": [
                            "James"
                        ]
                    }
                ],
                "telecom": [
                    {
                        "system": "phone",
                        "value": "tel:+6478532279",
                        "use": "home"
                    }
                ],
                "gender": "male",
                "birthDate": "1985-04-25",
                "address": [
                    {
                        "use": "home",
                        "type": "physical",
                        "line": [
                            "Bleak House",
                            "3 Worcester Drive",
                            "Rototuna North"
                        ],
                        "city": "Hamilton",
                        "postalCode": "3210",
                        "country": "NZ"
                    }
                ],
                "maritalStatus": {
                    "coding": [
                        {
                            "system": "http://terminology.hl7.org/CodeSystem/v3-MaritalStatus",
                            "code": "M",
                            "display": "Married"
                        }
                    ]
                },
                "contact": [
                    {
                        "relationship": [
                            {
                                "coding": [
                                    {
                                        "system": "http://terminology.hl7.org/CodeSystem/v2-0131",
                                        "code": "N",
                                        "display": "Next-of-Kin"
                                    }
                                ]
                            }
                        ],
                        "name": {
                            "use": "usual",
                            "family": "mother",
                            "given": [
                                "Natural",
                                "mother"
                            ]
                        }
                    },
                    {
                        "relationship": [
                            {
                                "coding": [
                                    {
                                        "system": "http://terminology.hl7.org/CodeSystem/v2-0131",
                                        "code": "C",
                                        "display": "Emergency Contact"
                                    }
                                ]
                            }
                        ],
                        "name": {
                            "use": "usual",
                            "family": "Rabbit",
                            "given": [
                                "Peter",
                                "Rabbit"
                            ]
                        },
                        "telecom": [
                            {
                                "system": "phone",
                                "value": "07 853 9191",
                                "use": "home"
                            }
                        ],
                        "address": {
                            "use": "home",
                            "type": "physical",
                            "line": [
                                "9 Worcester Drive",
                                "Rototuna"
                            ],
                            "city": "Hamilton",
                            "postalCode": "3210",
                            "country": "NZ"
                        }
                    }
                ],
                "communication": [
                    {
                        "language": {
                            "text": "en-NZ"
                        }
                    }
                ]
            }
        },
        {
            "fullUrl": "https://terminz.azurewebsites.net/fhir/Organization/03993b0c-87ae-478b-8556-8c52a68c3486",
            "resource": {
                "resourceType": "Organization",
                "id": "03993b0c-87ae-478b-8556-8c52a68c3486",
                "identifier": [
                    {
                        "system": "https://standards.digital.health.nz/ns/hpi-facility-id",
                        "value": "F0K068-E"
                    }
                ],
                "name": "Northcare, Thomas Road"
            }
        },
        {
            "fullUrl": "https://terminz.azurewebsites.net/fhir/PractitionerRole/1153dc30-cf69-402f-9522-132ec9ec14ac",
            "resource": {
                "resourceType": "PractitionerRole",
                "id": "1153dc30-cf69-402f-9522-132ec9ec14ac",
                "practitioner": {
                    "reference": "Practitioner/944fee7f-7dfd-4f68-84f4-43ca5287f05d"
                },
                "code": [
                    {
                        "coding": [
                            {
                                "system": "http://snomed.info/sct",
                                "code": "158965000",
                                "display": "Doctor"
                            }
                        ]
                    }
                ]
            }
        },
        {
            "fullUrl": "https://terminz.azurewebsites.net/fhir/Practitioner/944fee7f-7dfd-4f68-84f4-43ca5287f05d",
            "resource": {
                "resourceType": "Practitioner",
                "id": "944fee7f-7dfd-4f68-84f4-43ca5287f05d",
                "name": [
                    {
                        "use": "usual",
                        "family": "Kildare",
                        "given": [
                            "Dr",
                            "Richard",
                            "Kildare"
                        ]
                    }
                ],
                "telecom": [
                    {
                        "system": "phone",
                        "value": "tel:+6478539191",
                        "use": "work"
                    }
                ],
                "address": [
                    {
                        "use": "work",
                        "type": "physical",
                        "line": [
                            "12 Thomas Rd",
                            "Huntingdon"
                        ],
                        "city": "Hamilton",
                        "postalCode": "3211",
                        "country": "NZ"
                    }
                ]
            }
        },
        {
            "fullUrl": "https://terminz.azurewebsites.net/fhir/Organization/15d2d767-48ba-4222-a1ca-8fa34393aed4",
            "resource": {
                "resourceType": "Organization",
                "id": "15d2d767-48ba-4222-a1ca-8fa34393aed4",
                "identifier": [
                    {
                        "system": "urn:oid:2.16.840.1.113883.2.18.3",
                        "value": "F2N000-J"
                    }
                ],
                "name": "NorthCare Pukete Road"
            }
        },
        {
            "fullUrl": "https://terminz.azurewebsites.net/fhir/AllergyIntolerance/d46cc177-5660-46cc-9f55-6c28e1bc3bba",
            "resource": {
                "resourceType": "AllergyIntolerance",
                "id": "d46cc177-5660-46cc-9f55-6c28e1bc3bba",
                "clinicalStatus": {
                    "coding": [
                        {
                            "system": "http://terminology.hl7.org/CodeSystem/allergyintolerance-clinical",
                            "code": "active"
                        }
                    ]
                },
                "code": {
                    "coding": [
                        {
                            "system": "http://hl7.org/fhir/uv/ips/CodeSystem/absent-unknown-uv-ips",
                            "code": "no-allergy-info",
                            "display": "No information about allergies"
                        }
                    ]
                },
                "patient": {
                    "reference": "Patient/AAA1234"
                }
            }
        },
        {
            "fullUrl": "https://terminz.azurewebsites.net/fhir/Condition/20a587fa-239f-49c2-a3c8-ff2f2a18b654",
            "resource": {
                "resourceType": "Condition",
                "id": "20a587fa-239f-49c2-a3c8-ff2f2a18b654",
                "clinicalStatus": {
                    "coding": [
                        {
                            "system": "http://terminology.hl7.org/CodeSystem/condition-clinical",
                            "code": "active"
                        }
                    ]
                },
                "code": {
                    "coding": [
                        {
                            "system": "http://hl7.org/fhir/uv/ips/CodeSystem/absent-unknown-uv-ips",
                            "code": "no-problem-info",
                            "display": "No information about problems"
                        }
                    ]
                },
                "subject": {
                    "reference": "Patient/AAA1234"
                }
            }
        },
        {
            "fullUrl": "https://terminz.azurewebsites.net/fhir/MedicationStatement/4e348646-0375-486a-a33d-d19801e6c7f7",
            "resource": {
                "resourceType": "MedicationStatement",
                "id": "4e348646-0375-486a-a33d-d19801e6c7f7",
                "status": "unknown",
                "medicationCodeableConcept": {
                    "coding": [
                        {
                            "system": "http://hl7.org/fhir/uv/ips/CodeSystem/absent-unknown-uv-ips",
                            "code": "no-medication-info",
                            "display": "No information about medications"
                        }
                    ]
                },
                "subject": {
                    "reference": "Patient/AAA1234"
                },
                "effectiveDateTime": "2023-10-09T02:48:57.467553+00:00"
            }
        },
        {
            "fullUrl": "https://terminz.azurewebsites.net/fhir/Immunization/c5efb4c3-91cf-4f63-b176-a697215d727a",
            "resource": {
                "resourceType": "Immunization",
                "id": "c5efb4c3-91cf-4f63-b176-a697215d727a",
                "status": "completed",
                "vaccineCode": {
                    "coding": [
                        {
                            "system": "http://hl7.org/fhir/sid/cvx",
                            "code": "141",
                            "display": "Influenza, split virus, trivalent, preservative"
                        }
                    ]
                },
                "patient": {
                    "reference": "Patient/AAA1234"
                },
                "occurrenceDateTime": "2020-07-03",
                "lotNumber": "B52b",
                "expirationDate": "2020-07-03",
                "site": {
                    "coding": [
                        {
                            "system": "http://snomed.info/sct",
                            "code": "72098002",
                            "display": "Entire left upper arm"
                        }
                    ]
                },
                "route": {
                    "coding": [
                        {
                            "system": "http://terminology.hl7.org/CodeSystem/v3-RouteOfAdministration",
                            "code": "IM",
                            "display": "Injection, intramuscular"
                        }
                    ]
                },
                "performer": [
                    {
                        "actor": {
                            "reference": "Organization/15d2d767-48ba-4222-a1ca-8fa34393aed4"
                        }
                    }
                ],
                "protocolApplied": [
                    {
                        "series": "45y (Eligible condition (Influenza))",
                        "doseNumberPositiveInt": 2
                    }
                ]
            }
        },
        {
            "fullUrl": "https://terminz.azurewebsites.net/fhir/Immunization/f58b2627-eeac-4280-8475-195ae422aa2d",
            "resource": {
                "resourceType": "Immunization",
                "id": "f58b2627-eeac-4280-8475-195ae422aa2d",
                "status": "completed",
                "vaccineCode": {
                    "coding": [
                        {
                            "system": "http://hl7.org/fhir/sid/cvx",
                            "code": "141",
                            "display": "Influenza, split virus, trivalent, preservative"
                        }
                    ]
                },
                "patient": {
                    "reference": "Patient/AAA1234"
                },
                "occurrenceDateTime": "2019-06-03",
                "lotNumber": "B52",
                "expirationDate": "2019-08-03",
                "site": {
                    "coding": [
                        {
                            "system": "http://snomed.info/sct",
                            "code": "72098002",
                            "display": "Entire left upper arm"
                        }
                    ]
                },
                "route": {
                    "coding": [
                        {
                            "system": "http://terminology.hl7.org/CodeSystem/v3-RouteOfAdministration",
                            "code": "IM",
                            "display": "Injection, intramuscular"
                        }
                    ]
                },
                "performer": [
                    {
                        "actor": {
                            "reference": "Organization/15d2d767-48ba-4222-a1ca-8fa34393aed4"
                        }
                    }
                ],
                "protocolApplied": [
                    {
                        "series": "45y (Eligible condition (Influenza))",
                        "doseNumberPositiveInt": 1
                    }
                ]
            }
        }
    ]
}