<?xml version="1.0" encoding="UTF-8"?>
<Bundle xmlns="http://hl7.org/fhir">
  <id value="NZ-IPS-20231009024857"/>
  <language value="en-NZ"/>
  <identifier>
    <system value="urn:oid:2.16.724.4.8.10.200.10"/>
    <value value="59f51f0b-2005-485c-858e-3d3ae9657287"/>
  </identifier>
  <type value="document"/>
  <timestamp value="2023-10-09T02:48:57.004219+00:00"/>
  <entry>
    <fullUrl value="https://terminz.azurewebsites.net/fhir/Composition/d2d5d4dd-4e86-41c6-98d2-e412882e9b4c"/>
    <resource>
      <Composition>
        <id value="d2d5d4dd-4e86-41c6-98d2-e412882e9b4c"/>
        <meta>
          <versionId value="1"/>
        </meta>
        <language value="en-NZ"/>
        <text>
          <extension url="http://hl7.org/fhir/StructureDefinition/textLink">
            <extension url="htmlid">
              <valueString value="AAA1234"/>
            </extension>
            <extension url="data">
              <valueUri value="Patient/AAA1234#AAA1234"/>
            </extension>
          </extension>
          <extension url="http://hl7.org/fhir/StructureDefinition/textLink">
            <extension url="htmlid">
              <valueString value="AAA1234X"/>
            </extension>
            <extension url="data">
              <valueUri value="https://terminz.azurewebsites.net/fhir/Patient/AAA1234"/>
            </extension>
            <extension url="selector">
              <valueString value="Practitioner.name.given"/>
            </extension>
          </extension>
          <status value="generated"/>
          <div lang="en-NZ" xml:lang="en-NZ" xmlns="http://www.w3.org/1999/xhtml">International Patient Summary for
            <span id="AAA1234">James</span>
            <span id="AAA1234X">Judge</span>
          </div>
        </text>
        <identifier>
          <system value="urn:oid:2.16.840.1.113883.2.18.7.2"/>
          <value value="59f51f0b-2005-485c-858e-3d3ae9657287"/>
        </identifier>
        <status value="final"/>
        <type>
          <coding>
            <system value="http://loinc.org"/>
            <code value="60591-5"/>
            <display value="Patient summary Document"/>
          </coding>
        </type>
        <subject>
          <reference value="Patient/AAA1234"/>
        </subject>
        <date value="2021-05-03"/>
        <author>
          <reference value="Organization/03993b0c-87ae-478b-8556-8c52a68c3486"/>
        </author>
        <title value="International Patient Summary"/>
        <confidentiality value="N"/>
        <attester>
          <mode value="professional"/>
          <time value="2021-05-03"/>
          <party>
            <reference value="PractitionerRole/1153dc30-cf69-402f-9522-132ec9ec14ac"/>
          </party>
        </attester>
        <custodian>
          <reference value="Organization/15d2d767-48ba-4222-a1ca-8fa34393aed4"/>
        </custodian>
        <relatesTo>
          <code value="transforms"/>
          <targetIdentifier>
            <system value="urn:oid:2.16.840.1.113883.2.18.7.2"/>
            <value value="59f51f0b-2005-485c-858e-3d3ae9657287"/>
          </targetIdentifier>
        </relatesTo>
        <event>
          <code>
            <coding>
              <system value="http://terminology.hl7.org/CodeSystem/v3-ActClass"/>
              <code value="PCPR"/>
            </coding>
          </code>
          <period>
            <end value="2021-05-03"/>
          </period>
        </event>
        <section>
          <title value="Allergies and Intolerances"/>
          <code>
            <coding>
              <system value="http://loinc.org"/>
              <code value="48765-2"/>
              <display value="Allergies and adverse reactions Document"/>
            </coding>
          </code>
          <text>
            <status value="generated"/>
            <div lang="en-NZ" xml:lang="en-NZ" xmlns="http://www.w3.org/1999/xhtml">There is no information available regarding the subject's allergy conditions.</div>
          </text>
          <entry>
            <reference value="AllergyIntolerance/d46cc177-5660-46cc-9f55-6c28e1bc3bba"/>
          </entry>
        </section>
        <section>
          <title value="Problem List"/>
          <code>
            <coding>
              <system value="http://loinc.org"/>
              <code value="11450-4"/>
              <display value="Problem list - Reported"/>
            </coding>
          </code>
          <text>
            <status value="generated"/>
            <div lang="en-NZ" xml:lang="en-NZ" xmlns="http://www.w3.org/1999/xhtml">There is no information available about the subject's health problems or disabilities.</div>
          </text>
          <entry>
            <reference value="Condition/20a587fa-239f-49c2-a3c8-ff2f2a18b654"/>
          </entry>
        </section>
        <section>
          <title value="Medication Summary"/>
          <code>
            <coding>
              <system value="http://loinc.org"/>
              <code value="10160-0"/>
              <display value="History of Medication use Narrative"/>
            </coding>
          </code>
          <text>
            <status value="generated"/>
            <div lang="en-NZ" xml:lang="en-NZ" xmlns="http://www.w3.org/1999/xhtml">There is no information available about the subject's medication use or administration.</div>
          </text>
          <entry>
            <reference value="MedicationStatement/4e348646-0375-486a-a33d-d19801e6c7f7"/>
          </entry>
        </section>
        <section>
          <title value="Immunizations"/>
          <code>
            <coding>
              <system value="http://loinc.org"/>
              <code value="11369-6"/>
              <display value="History of Immunization Narrative"/>
            </coding>
          </code>
          <text>
            <status value="generated"/>
            <div xmlns="http://www.w3.org/1999/xhtml">
              <table>
                <thead>
                  <tr>
                    <th>Vaccine</th>
                    <th>Status</th>
                    <th>Occurance</th>
                    <th>Route</th>
                    <th>Dose #</th>
                    <th>Series</th> </tr> </thead>
                <tbody>
                  <tr>
                    <td>Influenza, split virus, trivalent, preservative</td>
                    <td>Completed</td>
                    <td>2020-07-03</td>
                    <td>Injection, intramuscular</td>
                    <td>2</td>
                    <td>45y (Eligible condition (Influenza))</td> </tr>
                  <tr>
                    <td>Influenza, split virus, trivalent, preservative</td>
                    <td>Completed</td>
                    <td>2019-06-03</td>
                    <td>Injection, intramuscular</td>
                    <td>1</td>
                    <td>45y (Eligible condition (Influenza))</td> </tr> </tbody> </table> </div>
          </text>
          <entry>
            <reference value="Immunization/c5efb4c3-91cf-4f63-b176-a697215d727a"/>
          </entry>
          <entry>
            <reference value="Immunization/f58b2627-eeac-4280-8475-195ae422aa2d"/>
          </entry>
        </section>
      </Composition>
    </resource>
  </entry>
  <entry id="AAA1234">
    <fullUrl value="https://terminz.azurewebsites.net/fhir/Patient/AAA1234"/>
    <resource>
      <Patient>
        <id value="AAA1234"/>
        <text>
          <status value="generated"/>
          <div xml:lang="en-NZ" xmlns="http://www.w3.org/1999/xhtml">Name: James Judge</div>
        </text>
        <identifier id="AAA1234X">
          <system value="https://standards.digital.health.nz/ns/nhi-id"/>
          <value value="AAA1234"/>
        </identifier>
        <name>
          <use value="usual"/>
          <family value="Judge"/>
          <given value="James"/>
        </name>
        <telecom>
          <system value="phone"/>
          <value value="tel:+6478532279"/>
          <use value="home"/>
        </telecom>
        <gender value="male"/>
        <birthDate value="1985-04-25"/>
        <address>
          <use value="home"/>
          <type value="physical"/>
          <line value="Bleak House"/>
          <line value="3 Worcester Drive"/>
          <line value="Rototuna North"/>
          <city value="Hamilton"/>
          <postalCode value="3210"/>
          <country value="NZ"/>
        </address>
        <maritalStatus>
          <coding>
            <system value="http://terminology.hl7.org/CodeSystem/v3-MaritalStatus"/>
            <code value="M"/>
            <display value="Married"/>
          </coding>
        </maritalStatus>
        <contact>
          <relationship>
            <coding>
              <system value="http://terminology.hl7.org/CodeSystem/v2-0131"/>
              <code value="N"/>
              <display value="Next-of-Kin"/>
            </coding>
          </relationship>
          <name>
            <use value="usual"/>
            <family value="mother"/>
            <given value="Natural"/>
            <given value="mother"/>
          </name>
        </contact>
        <contact>
          <relationship>
            <coding>
              <system value="http://terminology.hl7.org/CodeSystem/v2-0131"/>
              <code value="C"/>
              <display value="Emergency Contact"/>
            </coding>
          </relationship>
          <name>
            <use value="usual"/>
            <family value="Rabbit"/>
            <given value="Peter"/>
            <given value="Rabbit"/>
          </name>
          <telecom>
            <system value="phone"/>
            <value value="07 853 9191"/>
            <use value="home"/>
          </telecom>
          <address>
            <use value="home"/>
            <type value="physical"/>
            <line value="9 Worcester Drive"/>
            <line value="Rototuna"/>
            <city value="Hamilton"/>
            <postalCode value="3210"/>
            <country value="NZ"/>
          </address>
        </contact>
        <communication>
          <language>
            <text value="en-NZ"/>
          </language>
        </communication>
      </Patient>
    </resource>
  </entry>
  <entry>
    <fullUrl value="https://terminz.azurewebsites.net/fhir/Organization/03993b0c-87ae-478b-8556-8c52a68c3486"/>
    <resource>
      <Organization>
        <id value="03993b0c-87ae-478b-8556-8c52a68c3486"/>
        <identifier>
          <system value="https://standards.digital.health.nz/ns/hpi-facility-id"/>
          <value value="F0K068-E"/>
        </identifier>
        <name value="Northcare, Thomas Road"/>
      </Organization>
    </resource>
  </entry>
  <entry>
    <fullUrl value="https://terminz.azurewebsites.net/fhir/PractitionerRole/1153dc30-cf69-402f-9522-132ec9ec14ac"/>
    <resource>
      <PractitionerRole>
        <id value="1153dc30-cf69-402f-9522-132ec9ec14ac"/>
        <practitioner>
          <reference value="Practitioner/944fee7f-7dfd-4f68-84f4-43ca5287f05d"/>
        </practitioner>
        <code>
          <coding>
            <system value="http://snomed.info/sct"/>
            <code value="158965000"/>
            <display value="Doctor"/>
          </coding>
        </code>
      </PractitionerRole>
    </resource>
  </entry>
  <entry>
    <fullUrl value="https://terminz.azurewebsites.net/fhir/Practitioner/944fee7f-7dfd-4f68-84f4-43ca5287f05d"/>
    <resource>
      <Practitioner>
        <id value="944fee7f-7dfd-4f68-84f4-43ca5287f05d"/>
        <name>
          <use value="usual"/>
          <family value="Kildare"/>
          <given value="Dr"/>
          <given value="Richard"/>
          <given value="Kildare"/>
        </name>
        <telecom>
          <system value="phone"/>
          <value value="tel:+6478539191"/>
          <use value="work"/>
        </telecom>
        <address>
          <use value="work"/>
          <type value="physical"/>
          <line value="12 Thomas Rd"/>
          <line value="Huntingdon"/>
          <city value="Hamilton"/>
          <postalCode value="3211"/>
          <country value="NZ"/>
        </address>
      </Practitioner>
    </resource>
  </entry>
  <entry>
    <fullUrl value="https://terminz.azurewebsites.net/fhir/Organization/15d2d767-48ba-4222-a1ca-8fa34393aed4"/>
    <resource>
      <Organization>
        <id value="15d2d767-48ba-4222-a1ca-8fa34393aed4"/>
        <identifier>
          <system value="urn:oid:2.16.840.1.113883.2.18.3"/>
          <value value="F2N000-J"/>
        </identifier>
        <name value="NorthCare Pukete Road"/>
      </Organization>
    </resource>
  </entry>
  <entry>
    <fullUrl value="https://terminz.azurewebsites.net/fhir/AllergyIntolerance/d46cc177-5660-46cc-9f55-6c28e1bc3bba"/>
    <resource>
      <AllergyIntolerance>
        <id value="d46cc177-5660-46cc-9f55-6c28e1bc3bba"/>
        <clinicalStatus>
          <coding>
            <system value="http://terminology.hl7.org/CodeSystem/allergyintolerance-clinical"/>
            <code value="active"/>
          </coding>
        </clinicalStatus>
        <code>
          <coding>
            <system value="http://hl7.org/fhir/uv/ips/CodeSystem/absent-unknown-uv-ips"/>
            <code value="no-allergy-info"/>
            <display value="No information about allergies"/>
          </coding>
        </code>
        <patient>
          <reference value="Patient/AAA1234"/>
        </patient>
      </AllergyIntolerance>
    </resource>
  </entry>
  <entry>
    <fullUrl value="https://terminz.azurewebsites.net/fhir/Condition/20a587fa-239f-49c2-a3c8-ff2f2a18b654"/>
    <resource>
      <Condition>
        <id value="20a587fa-239f-49c2-a3c8-ff2f2a18b654"/>
        <clinicalStatus>
          <coding>
            <system value="http://terminology.hl7.org/CodeSystem/condition-clinical"/>
            <code value="active"/>
          </coding>
        </clinicalStatus>
        <code>
          <coding>
            <system value="http://hl7.org/fhir/uv/ips/CodeSystem/absent-unknown-uv-ips"/>
            <code value="no-problem-info"/>
            <display value="No information about problems"/>
          </coding>
        </code>
        <subject>
          <reference value="Patient/AAA1234"/>
        </subject>
      </Condition>
    </resource>
  </entry>
  <entry>
    <fullUrl value="https://terminz.azurewebsites.net/fhir/MedicationStatement/4e348646-0375-486a-a33d-d19801e6c7f7"/>
    <resource>
      <MedicationStatement>
        <id value="4e348646-0375-486a-a33d-d19801e6c7f7"/>
        <status value="unknown"/>
        <medicationCodeableConcept>
          <coding>
            <system value="http://hl7.org/fhir/uv/ips/CodeSystem/absent-unknown-uv-ips"/>
            <code value="no-medication-info"/>
            <display value="No information about medications"/>
          </coding>
        </medicationCodeableConcept>
        <subject>
          <reference value="Patient/AAA1234"/>
        </subject>
        <effectiveDateTime value="2023-10-09T02:48:57.004675+00:00"/>
      </MedicationStatement>
    </resource>
  </entry>
  <entry>
    <fullUrl value="https://terminz.azurewebsites.net/fhir/Immunization/c5efb4c3-91cf-4f63-b176-a697215d727a"/>
    <resource>
      <Immunization>
        <id value="c5efb4c3-91cf-4f63-b176-a697215d727a"/>
        <status value="completed"/>
        <vaccineCode>
          <coding>
            <system value="http://hl7.org/fhir/sid/cvx"/>
            <code value="141"/>
            <display value="Influenza, split virus, trivalent, preservative"/>
          </coding>
        </vaccineCode>
        <patient>
          <reference value="Patient/AAA1234"/>
        </patient>
        <occurrenceDateTime value="2020-07-03"/>
        <lotNumber value="B52b"/>
        <expirationDate value="2020-07-03"/>
        <site>
          <coding>
            <system value="http://snomed.info/sct"/>
            <code value="72098002"/>
            <display value="Entire left upper arm"/>
          </coding>
        </site>
        <route>
          <coding>
            <system value="http://terminology.hl7.org/CodeSystem/v3-RouteOfAdministration"/>
            <code value="IM"/>
            <display value="Injection, intramuscular"/>
          </coding>
        </route>
        <performer>
          <actor>
            <reference value="Organization/15d2d767-48ba-4222-a1ca-8fa34393aed4"/>
          </actor>
        </performer>
        <protocolApplied>
          <series value="45y (Eligible condition (Influenza))"/>
          <doseNumberPositiveInt value="2"/>
        </protocolApplied>
      </Immunization>
    </resource>
  </entry>
  <entry>
    <fullUrl value="https://terminz.azurewebsites.net/fhir/Immunization/f58b2627-eeac-4280-8475-195ae422aa2d"/>
    <resource>
      <Immunization>
        <id value="f58b2627-eeac-4280-8475-195ae422aa2d"/>
        <status value="completed"/>
        <vaccineCode>
          <coding>
            <system value="http://hl7.org/fhir/sid/cvx"/>
            <code value="141"/>
            <display value="Influenza, split virus, trivalent, preservative"/>
          </coding>
        </vaccineCode>
        <patient>
          <reference value="Patient/AAA1234"/>
        </patient>
        <occurrenceDateTime value="2019-06-03"/>
        <lotNumber value="B52"/>
        <expirationDate value="2019-08-03"/>
        <site>
          <coding>
            <system value="http://snomed.info/sct"/>
            <code value="72098002"/>
            <display value="Entire left upper arm"/>
          </coding>
        </site>
        <route>
          <coding>
            <system value="http://terminology.hl7.org/CodeSystem/v3-RouteOfAdministration"/>
            <code value="IM"/>
            <display value="Injection, intramuscular"/>
          </coding>
        </route>
        <performer>
          <actor>
            <reference value="Organization/15d2d767-48ba-4222-a1ca-8fa34393aed4"/>
          </actor>
        </performer>
        <protocolApplied>
          <series value="45y (Eligible condition (Influenza))"/>
          <doseNumberPositiveInt value="1"/>
        </protocolApplied>
      </Immunization>
    </resource>
  </entry>
</Bundle>