{
  "resourceType": "Bundle",
  "identifier": {
    "system": "urn:ietf:rfc:4122",
    "value": "bc0be9cf-b905-4beb-a8f4-8a64e61b92a6"
  },
  "type": "document",
  "timestamp": "2023-11-30T21:41:29.867+00:00",
  "entry": [ {
    "fullUrl": "urn:uuid:8ce7db7b-9b9b-41ae-b1d7-3f2d1c728a13",
    "resource": {
      "resourceType": "Composition",
      "text": {
        "status": "generated",
        "div": "<div xmlns=\"http://www.w3.org/1999/xhtml\"><div><h1>Allergies and Intolerances</h1><div><div><table class=\"hapiPropertyTable\"><caption>Allergies And Intolerances</caption><thead><tr><th>Allergen</th><th>Status</th><th>Category</th><th>Reaction</th><th>Severity</th><th>Comments</th><th>Onset</th></tr></thead><tbody><tr idref=\"ai1\"><td> Barbituraten </td><td> active </td><td> MEDICATION </td><td></td><td></td><td> erg duizelig en misselijkheid </td><td>Fri May 08 00:00:00 GMT 2020</td></tr><tr idref=\"ai2\"><td> PARACETAMOL </td><td> active </td><td> BIOLOGIC </td><td></td><td></td><td></td><td>Tue May 18 00:00:00 GMT 2021</td></tr></tbody></table></div></div></div></div>"
      },
      "status": "final",
      "type": {
        "coding": [ {
          "system": "http://loinc.org",
          "code": "60591-5",
          "display": "Patient Summary Document"
        } ]
      },
      "subject": {
        "reference": "urn:uuid:0118b1a2-87c0-4c04-b228-cefa3e43d092"
      },
      "date": "2023-11-30T21:41:29.691+00:00",
      "author": [ {
        "reference": "urn:uuid:2ce90511-7938-4180-8f58-2c56eadf5ec4"
      } ],
      "title": "Patient Summary as of 11/30/2023",
      "confidentiality": "N",
      "section": [ {
        "title": "Allergies and Intolerances",
        "code": {
          "coding": [ {
            "system": "http://loinc.org",
            "code": "48765-2",
            "display": "Allergies and adverse reactions Document"
          } ]
        },
        "text": {
          "status": "generated",
          "div": "<div xmlns=\"http://www.w3.org/1999/xhtml\"><table class=\"hapiPropertyTable\"><caption>Allergies And Intolerances</caption><thead><tr><th>Allergen</th><th>Status</th><th>Category</th><th>Reaction</th><th>Severity</th><th>Comments</th><th>Onset</th></tr></thead><tbody><tr idref=\"ai1\"><td> Barbituraten </td><td> active </td><td> MEDICATION </td><td></td><td></td><td> erg duizelig en misselijkheid </td><td>Fri May 08 00:00:00 GMT 2020</td></tr><tr idref=\"ai2\"><td> PARACETAMOL </td><td> active </td><td> BIOLOGIC </td><td></td><td></td><td></td><td>Tue May 18 00:00:00 GMT 2021</td></tr></tbody></table></div>"
        },
        "entry": [ {
          "id" : "ai1",
          "reference": "urn:uuid:edf25255-bfcd-4e29-a797-e89ea4ef000c"
        }, {
          "id" : "ai2x",
          "reference": "urn:uuid:01ea6a58-df5f-4455-b6b2-7a31492be6b1"
        } ]
      }]
    }
  }, {
    "fullUrl": "urn:uuid:0118b1a2-87c0-4c04-b228-cefa3e43d092",
    "resource": {
      "resourceType": "Patient",
      "meta": {
        "versionId": "1",
        "lastUpdated": "2023-09-05T14:05:45.414+00:00",
        "source": "#vAYMXrU9Wzm3Px0s"
      },
      "text": {
        "status": "extensions",
        "div": "<div xmlns=\"http://www.w3.org/1999/xhtml\"><div>Id <i>afgeschermd (ontbrekend gegeven)</i> (BSN), OG O.O. Persoon1, Man, 1 januari 1954</div><div>Lomanstraat 1, 1075PW Amsterdam</div></div>"
      },
      "identifier": [ {
        "system": "http://fhir.nl/fhir/NamingSystem/bsn",
        "_value": {
          "extension": [ {
            "url": "http://hl7.org/fhir/StructureDefinition/data-absent-reason",
            "valueCode": "masked"
          } ]
        }
      } ],
      "name": [ {
        "extension": [ {
          "url": "http://hl7.org/fhir/StructureDefinition/humanname-assembly-order",
          "valueCode": "UNK"
        } ],
        "family": "Persoon1",
        "_family": {
          "extension": [ {
            "url": "http://hl7.org/fhir/StructureDefinition/humanname-own-name",
            "valueString": "Persoon1"
          } ]
        },
        "given": [ "OG", "O.O." ],
        "_given": [ {
          "extension": [ {
            "url": "http://hl7.org/fhir/StructureDefinition/iso21090-EN-qualifier",
            "valueCode": "BR"
          } ]
        }, {
          "extension": [ {
            "url": "http://hl7.org/fhir/StructureDefinition/iso21090-EN-qualifier",
            "valueCode": "IN"
          } ]
        } ]
      } ],
      "gender": "male",
      "birthDate": "1954-01-01",
      "address": [ {
        "line": [ "Lomanstraat 1" ],
        "_line": [ {
          "extension": [ {
            "url": "http://hl7.org/fhir/StructureDefinition/iso21090-ADXP-streetName",
            "valueString": "Lomanstraat"
          }, {
            "url": "http://hl7.org/fhir/StructureDefinition/iso21090-ADXP-houseNumber",
            "valueString": "1"
          } ]
        } ],
        "city": "Amsterdam",
        "postalCode": "1075PW"
      } ]
    }
  }, {
    "fullUrl": "urn:uuid:edf25255-bfcd-4e29-a797-e89ea4ef000c",
    "resource": {
      "resourceType": "AllergyIntolerance",
      "meta": {
        "versionId": "1",
        "lastUpdated": "2023-09-05T14:05:45.615+00:00",
        "source": "#aiS4FNzTwJ2qSkJU"
      },
      "text": {
        "status": "extensions",
        "div": "<div xmlns=\"http://www.w3.org/1999/xhtml\"><table><caption>Allergie/intolerantie. Patiënt: OG O.O. Persoon1. Id: ef61e1263243ef3276f06dde345eee32 (urn:oid:2.16.528.1.1007.3.3.90000382.418.3), Categorie: <span title=\"neiging tot ongewenste reactie op geneesmiddel (419511003 - SNOMED CT)\">neiging tot ongewenste reactie op geneesmiddel</span>, Status: actief / <i>onbekend (ontbrekend gegeven)</i></caption><tfoot><tr><td colspan=\"2\">erg duizelig en misselijkheid</td></tr></tfoot><tbody><tr><th>Code</th><td><span title=\"Barbituraten (6 - G-Standaard Tabel 122)\">Barbituraten</span></td></tr><tr><th>Eerste symptomen</th><td>8 mei 2020</td></tr></tbody></table></div>"
      },
      "identifier": [ {
        "system": "urn:oid:2.16.528.1.1007.3.3.90000382.418.3",
        "value": "ef61e1263243ef3276f06dde345eee32"
      } ],
      "clinicalStatus": {
        "coding": [ {
          "system": "http://terminology.hl7.org/CodeSystem/allergyintolerance-clinical",
          "code": "active"
        } ]
      },
      "category": [ "medication" ],
      "code": {
        "text": "Barbituraten"
      },
      "patient": {
        "reference": "urn:uuid:0118b1a2-87c0-4c04-b228-cefa3e43d092"
      },
      "onsetDateTime": "2020-05-08",
      "note": [ {
        "text": "erg duizelig en misselijkheid"
      } ]
    }
  }, {
    "fullUrl": "urn:uuid:01ea6a58-df5f-4455-b6b2-7a31492be6b1",
    "resource": {
      "resourceType": "AllergyIntolerance",
      "meta": {
        "versionId": "1",
        "lastUpdated": "2023-09-05T14:05:45.653+00:00",
        "source": "#1njrRvLievK86CqZ"
      },
      "text": {
        "status": "extensions",
        "div": "<div xmlns=\"http://www.w3.org/1999/xhtml\"><table><caption>Allergie/intolerantie. Patiënt: H. Henç Méldërs. Id: 1343 (urn:oid:2.16.528.1.1007.3.3.90000384.231.1), Categorie: <span title=\"allergie voor substantie (419199007 - SNOMED CT)\">allergie voor substantie</span>, Status: actief / <i>onbekend (ontbrekend gegeven)</i></caption><tbody><tr><th>Code</th><td><span title=\"PARACETAMOL (906 - G-Standaard Bestand 750)\">PARACETAMOL</span></td></tr><tr><th>Eerste symptomen</th><td>18 mei 2021</td></tr></tbody></table></div>"
      },
      "identifier": [ {
        "system": "urn:oid:2.16.528.1.1007.3.3.90000384.231.1",
        "value": "1343"
      } ],
      "clinicalStatus": {
        "coding": [ {
          "system": "http://terminology.hl7.org/CodeSystem/allergyintolerance-clinical",
          "code": "active"
        } ]
      },
      "category": [ "biologic" ],
      "code": {
        "text": "PARACETAMOL"
      },
      "patient": {
        "reference": "urn:uuid:0118b1a2-87c0-4c04-b228-cefa3e43d092"
      },
      "onsetDateTime": "2021-05-18"
    }
  }, {
    "fullUrl": "urn:uuid:2ce90511-7938-4180-8f58-2c56eadf5ec4",
    "resource": {
      "resourceType": "Organization",
      "name": "eHealthLab - University of Cyprus",
      "address": [ {
        "line": [ "1 University Avenue" ],
        "city": "Nicosia",
        "postalCode": "2109",
        "country": "CY"
      } ]
    }
  }  ]
}