{
  "resourceType": "Bundle",
  "id": "NZ-IPS-20231116031823",
  "language": "en-NZ",
  "identifier": {
    "system": "urn:oid:2.16.724.4.8.10.200.10",
    "value": "0936e7a5-b376-4530-abe1-42680b11060b"
  },
  "type": "document",
  "timestamp": "2023-11-16T03:18:23.650906+00:00",
  "entry": [
    {
      "fullUrl": "https://terminz.azurewebsites.net/fhir/Composition/a80ab42b-026c-4032-bc65-9a1ffcba3223",
      "resource": {
        "resourceType": "Composition",
        "id": "a80ab42b-026c-4032-bc65-9a1ffcba3223",
        "meta": {
          "versionId": "1"
        },
        "language": "en-NZ",
        "text": {
          "status": "generated",
          "div": "<div xmlns='http://www.w3.org/1999/xhtml' lang='en-NZ' xml:lang='en-NZ'>International Patient Summary for Iosefa Test-Fuimaono</div>"
        },
        "identifier": {
          "system": "urn:oid:2.16.840.1.113883.2.18.7.2",
          "value": "0936e7a5-b376-4530-abe1-42680b11060b"
        },
        "status": "final",
        "type": {
          "coding": [
            {
              "system": "http://loinc.org",
              "code": "60591-5",
              "display": "Patient summary Document"
            }
          ]
        },
        "subject": {
          "reference": "Patient/ZKT9319"
        },
        "date": "2023-11-07",
        "author": [
          {
            "reference": "Organization/a490c125-1ce4-4f18-8d0a-14b49d466aa2"
          }
        ],
        "title": "International Patient Summary",
        "confidentiality": "N",
        "attester": [
          {
            "mode": "professional",
            "time": "2023-11-07",
            "party": {
              "reference": "PractitionerRole/64b2381c-53a0-4243-96e9-803552fd3b36"
            }
          }
        ],
        "custodian": {
          "reference": "Organization/e9895ebe-7919-4d9a-9431-ce74a9825e36"
        },
        "relatesTo": [
          {
            "code": "transforms",
            "targetIdentifier": {
              "system": "urn:oid:2.16.840.1.113883.2.18.7.2",
              "value": "0936e7a5-b376-4530-abe1-42680b11060b"
            }
          }
        ],
        "event": [
          {
            "code": [
              {
                "coding": [
                  {
                    "system": "http://terminology.hl7.org/CodeSystem/v3-ActClass",
                    "code": "PCPR"
                  }
                ]
              }
            ],
            "period": {
              "end": "2023-11-07"
            }
          }
        ],
        "section": [
          {
            "title": "Allergies and Intolerances",
            "code": {
              "coding": [
                {
                  "system": "http://loinc.org",
                  "code": "48765-2",
                  "display": "Allergies and adverse reactions Document"
                }
              ]
            },
            "text": {
              "status": "generated",
              "div": "<div xmlns=\"http://www.w3.org/1999/xhtml\">\r\n  <table>\r\n    <thead>\r\n      <tr>\r\n        <th>Code</th>\r\n        <th>Type</th>\r\n        <th>Recorded On</th>\r\n        <th>Asserted By</th>\r\n        <th>Clinical Status</th>\r\n        <th>Verification Status</th>\r\n      </tr>\r\n    </thead>\r\n    <tbody>\r\n      <tr>\r\n        <td>Flucloxacillin-containing product</td>\r\n        <td>Allergy</td>\r\n        <td />\r\n        <td>Patient/ZKT9319</td>\r\n        <td>active</td>\r\n        <td>confirmed</td>\r\n      </tr>\r\n      <tr>\r\n        <td>Diazepam-containing product</td>\r\n        <td>Allergy</td>\r\n        <td />\r\n        <td>Patient/ZKT9319</td>\r\n        <td>active</td>\r\n        <td>confirmed</td>\r\n      </tr>\r\n    </tbody>\r\n  </table>\r\n</div>"
            },
            "entry": [
              {
                "reference": "AllergyIntolerance/fd56e302-930a-487c-bca5-ab3be4ed19f9"
              },
              {
                "reference": "AllergyIntolerance/4e0daf12-9015-482a-bc24-f78238924e3a"
              }
            ]
          },
          {
            "title": "Problem List",
            "code": {
              "coding": [
                {
                  "system": "http://loinc.org",
                  "code": "11450-4",
                  "display": "Problem list - Reported"
                }
              ]
            },
            "text": {
              "status": "generated",
              "div": "<div xmlns=\"http://www.w3.org/1999/xhtml\">\r\n  <table>\r\n    <thead>\r\n      <tr>\r\n        <th>Condition</th>\r\n        <th>Category</th>\r\n        <th>Recorded On</th>\r\n        <th>Clinical Status</th>\r\n        <th>Verification Status</th>\r\n      </tr>\r\n    </thead>\r\n    <tbody>\r\n      <tr>\r\n        <td>Postconcussion syndrome</td>\r\n        <td>Problem List Item</td>\r\n        <td />\r\n        <td>active</td>\r\n        <td>confirmed</td>\r\n      </tr>\r\n      <tr>\r\n        <td>Diabetes type 2 on insulin</td>\r\n        <td>Problem List Item</td>\r\n        <td />\r\n        <td>active</td>\r\n        <td>confirmed</td>\r\n      </tr>\r\n      <tr>\r\n        <td>Gout</td>\r\n        <td>Problem List Item</td>\r\n        <td />\r\n        <td>active</td>\r\n        <td>confirmed</td>\r\n      </tr>\r\n      <tr>\r\n        <td>Benign essential hypertension</td>\r\n        <td>Problem List Item</td>\r\n        <td />\r\n        <td>active</td>\r\n        <td>confirmed</td>\r\n      </tr>\r\n      <tr>\r\n        <td>Anxiety disorder due to a general medical condition</td>\r\n        <td>Problem List Item</td>\r\n        <td />\r\n        <td>inactive</td>\r\n        <td>confirmed</td>\r\n      </tr>\r\n      <tr>\r\n        <td>Fracture of neck of femur</td>\r\n        <td>Problem List Item</td>\r\n        <td />\r\n        <td>inactive</td>\r\n        <td>confirmed</td>\r\n      </tr>\r\n    </tbody>\r\n  </table>\r\n</div>"
            },
            "entry": [
              {
                "reference": "Condition/8cb53ee4-ad72-4857-ae37-18aec8a7bb1d"
              },
              {
                "reference": "Condition/4c936e8b-61c1-4313-a682-af560390ed88"
              },
              {
                "reference": "Condition/ed7906b5-e6fa-4f2d-9bfa-61374a99c779"
              },
              {
                "reference": "Condition/618b4bb1-a691-4f8e-8ddf-a905a8da6245"
              },
              {
                "reference": "Condition/8df13759-39a6-453f-a907-e56143664a71"
              },
              {
                "reference": "Condition/cc3b4103-ada2-4846-ae4f-fcf8da697aaf"
              }
            ]
          },
          {
            "title": "Medication Summary",
            "code": {
              "coding": [
                {
                  "system": "http://loinc.org",
                  "code": "10160-0",
                  "display": "History of Medication use Narrative"
                }
              ]
            },
            "text": {
              "status": "generated",
              "div": "<div xmlns=\"http://www.w3.org/1999/xhtml\">\r\n  <table>\r\n    <thead>\r\n      <tr>\r\n        <th>Drug</th>\r\n        <th>Status</th>\r\n        <th>Effective</th>\r\n        <th>Instructions</th>\r\n      </tr>\r\n    </thead>\r\n    <tbody>\r\n      <tr>\r\n        <td>insulin glargine 100 international units/mL injection, 10 mL vial</td>\r\n        <td>Active</td>\r\n        <td>2023-02-12</td>\r\n        <td>Inject 20 units per day into your upper arms, abdomen or thights.You should vary the site where you inject each dose of Lantus. This helps reduce your risk of certain side effects, such as pits or lumps in your skin.</td>\r\n      </tr>\r\n      <tr>\r\n        <td>dulaglutide 1.5 mg/0.5 mL injection, prefilled injection device</td>\r\n        <td>Active</td>\r\n        <td>2023-02-12</td>\r\n        <td>Inject once a week, on the same day each week, into the skin of your stomach, thigh or upper arm. You can use the same area of your body each time, but choose a different place within that area. You can inject it any time of the day, with or without meals.</td>\r\n      </tr>\r\n      <tr>\r\n        <td>metformin hydrochloride 1000 mg tablet</td>\r\n        <td>Active</td>\r\n        <td>2023-02-12</td>\r\n        <td>Take ONE tablet, two times a day, with meals.</td>\r\n      </tr>\r\n      <tr>\r\n        <td>amlodipine 5 mg tablet</td>\r\n        <td>Active</td>\r\n        <td>2023-02-12</td>\r\n        <td>Take ONE tablet at any time of day, but try to make sure it's around the same time every day.</td>\r\n      </tr>\r\n      <tr>\r\n        <td>losartan potassium 50 mg tablet</td>\r\n        <td>Active</td>\r\n        <td>2023-02-12</td>\r\n        <td>Take ONE tablet daily</td>\r\n      </tr>\r\n      <tr>\r\n        <td>aspirin 75 mg tablet: enteric-coated</td>\r\n        <td>Active</td>\r\n        <td>2023-02-12</td>\r\n        <td>Take ONE tablet daily</td>\r\n      </tr>\r\n      <tr>\r\n        <td>allopurinol 300 mg tablet</td>\r\n        <td>Active</td>\r\n        <td>2023-02-12</td>\r\n        <td>Take ONE tablet daily, after meals</td>\r\n      </tr>\r\n    </tbody>\r\n  </table>\r\n</div>"
            },
            "entry": [
              {
                "reference": "MedicationStatement/c62e1b27-8387-4416-b7d9-726266833c2e"
              },
              {
                "reference": "MedicationStatement/2b3b03a8-e0f1-41b8-8ce9-6181d37731a6"
              },
              {
                "reference": "MedicationStatement/7020da78-30e0-4c59-a190-f355aaa4f1b2"
              },
              {
                "reference": "MedicationStatement/09babd06-fd3e-4177-bc5a-7106a1762285"
              },
              {
                "reference": "MedicationStatement/06a836e1-1b4d-44cf-a9a6-7a2e950cd8f9"
              },
              {
                "reference": "MedicationStatement/58b22f52-66f3-4764-80f3-f39bf52b1d58"
              },
              {
                "reference": "MedicationStatement/68679ef7-8109-4fd2-a360-e11c69806afc"
              }
            ]
          },
          {
            "title": "Immunizations",
            "code": {
              "coding": [
                {
                  "system": "http://loinc.org",
                  "code": "11369-6",
                  "display": "History of Immunization Narrative"
                }
              ]
            },
            "text": {
              "status": "generated",
              "div": "<div xmlns=\"http://www.w3.org/1999/xhtml\">\r\n  <table>\r\n    <thead>\r\n      <tr>\r\n        <th>Vaccine</th>\r\n        <th>Status</th>\r\n        <th>Occurance</th>\r\n        <th>Route</th>\r\n        <th>Dose #</th>\r\n        <th>Series</th>\r\n      </tr>\r\n    </thead>\r\n    <tbody>\r\n      <tr>\r\n        <td>SARS-COV-2 (COVID-19) vaccine, mRNA, spike protein, LNP, preservative free, 30 mcg/0.3mL dose</td>\r\n        <td>Completed</td>\r\n        <td>2022-02-01</td>\r\n        <td>Injection, intramuscular</td>\r\n        <td>2</td>\r\n        <td>12 (At risk, no previous history)</td>\r\n      </tr>\r\n      <tr>\r\n        <td>SARS-COV-2 (COVID-19) vaccine, mRNA, spike protein, LNP, preservative free, 30 mcg/0.3mL dose</td>\r\n        <td>Completed</td>\r\n        <td>2021-08-05</td>\r\n        <td>Injection, intramuscular</td>\r\n        <td>1</td>\r\n        <td>12 (At risk, no previous history)</td>\r\n      </tr>\r\n      <tr>\r\n        <td>Influenza, seasonal, injectable</td>\r\n        <td>Completed</td>\r\n        <td>2019-05-20</td>\r\n        <td>Injection, intramuscular</td>\r\n        <td>1</td>\r\n        <td>1 (Over 65 years (Influenza))</td>\r\n      </tr>\r\n      <tr>\r\n        <td>diphtheria, tetanus toxoids and acellular pertussis vaccine</td>\r\n        <td>Completed</td>\r\n        <td>2019-04-24</td>\r\n        <td>Injection, intramuscular</td>\r\n        <td>1</td>\r\n        <td>6 (Booster)</td>\r\n      </tr>\r\n      <tr>\r\n        <td>tetanus and diphtheria toxoids, not adsorbed, for adult use</td>\r\n        <td>Completed</td>\r\n        <td>2018-04-05</td>\r\n        <td>Injection, intramuscular</td>\r\n        <td>1</td>\r\n        <td>6 (Booster)</td>\r\n      </tr>\r\n      <tr>\r\n        <td>pneumococcal conjugate vaccine, 13 valent</td>\r\n        <td>Completed</td>\r\n        <td>2015-09-25</td>\r\n        <td>Injection, intramuscular</td>\r\n        <td>1</td>\r\n        <td>21 (PCV catch up)</td>\r\n      </tr>\r\n      <tr>\r\n        <td>Influenza, seasonal, injectable</td>\r\n        <td>Completed</td>\r\n        <td>2015-05-01</td>\r\n        <td>Injection, intramuscular</td>\r\n        <td>1</td>\r\n        <td>1 (Over 65 years (Influenza))</td>\r\n      </tr>\r\n    </tbody>\r\n  </table>\r\n</div>"
            },
            "entry": [
              {
                "reference": "Immunization/7f760c0d-ed4c-4f33-ab92-5b3098fca67e"
              },
              {
                "reference": "Immunization/57a790c1-51bd-4a92-bb93-9de6344da90e"
              },
              {
                "reference": "Immunization/692af6e4-0fcb-41ca-978c-5487f69d72b9"
              },
              {
                "reference": "Immunization/4d34572b-7f68-49e1-b38d-144d082d5c46"
              },
              {
                "reference": "Immunization/0bdfe5a8-50a3-43f3-ad29-efff5c097cf4"
              },
              {
                "reference": "Immunization/cc2a8b26-d4fb-4cb3-823f-f29f5e89734e"
              },
              {
                "reference": "Immunization/f8b395ef-99b7-4010-a63a-63f221530106"
              }
            ]
          },
          {
            "title": "Procedures",
            "code": {
              "coding": [
                {
                  "system": "http://loinc.org",
                  "code": "47519-4",
                  "display": "History of Procedures Document"
                }
              ]
            },
            "text": {
              "status": "generated",
              "div": "<div xmlns='http://www.w3.org/1999/xhtml' xml:lang='en-NZ'><table xmlns=\"http://www.w3.org/1999/xhtml\">        <thead>          <tr>            <th>Date(s)</th>            <th>Procedure</th>            <th>Location</th>            <th>Performer</th>            <th>Comments</th>                                  </tr>        </thead>        <tbody>          <tr>            <td>01/09/2020 to 01/09/2020</td>            <td>Operative procedure on hip</td>            <td>Waikato Hospital</td>                                                          </tr>          <tr>            <td>31/03/2018 to 31/03/2018</td>            <td>Hand closure</td>            <td>Samoa</td>                                                          </tr>        </tbody>      </table>    </div>"
            },
            "entry": [
              {
                "reference": "Procedure/043354f1-0ccf-4e69-a59e-aa66efa42f8a"
              },
              {
                "reference": "Procedure/21809a15-827b-4f38-8fff-12dd2ec041c1"
              }
            ]
          },
          {
            "title": "Results",
            "code": {
              "coding": [
                {
                  "system": "http://loinc.org",
                  "code": "30954-2",
                  "display": "Relevant diagnostic tests/laboratory data Narrative"
                }
              ]
            },
            "text": {
              "status": "generated",
              "div": "<div xmlns='http://www.w3.org/1999/xhtml' xml:lang='en-NZ'><table>        <tbody>          <tr>            <th>Result Group:</th>            <td>Lipids</td>            <th>Result Date:</th>            <td>05 Mar 2023 00:00</td>            <th>Result Status:</th>            <td>completed</td>          </tr>        </tbody>      </table>      <table xmlns=\"http://www.w3.org/1999/xhtml\">        <thead>          <tr>            <th>Result Name</th>            <th>Value</th>            <th>Reference Range</th>            <th>Abnormal Indicator</th>            <th>Comments</th>                                  </tr>        </thead>        <tbody>          <tr>            <td>Total cholesterol:HDL ratio</td>            <td>5.1 mmol/L</td>            <td>&lt;4 mmol/L (high risk)</td>            <td>H</td>                                              </tr>          <tr>            <td>HDL Cholesterol</td>            <td>1.5 mmol/L</td>            <td>&gt;1 mmol/L</td>            <td>N</td>                                              </tr>          <tr>            <td>LDL Cholesterol</td>            <td>3.4 mmol/L</td>            <td>&lt;1.8 mmol/L</td>            <td>H</td>                                              </tr>        </tbody>      </table>            <table>        <tbody>          <tr>            <th>Result Group:</th>            <td>HbA1C</td>            <th>Result Date:</th>            <td>05 Mar 2023 00:00</td>            <th>Result Status:</th>            <td>completed</td>          </tr>        </tbody>      </table>      <table xmlns=\"http://www.w3.org/1999/xhtml\">        <thead>          <tr>            <th>Result Name</th>            <th>Value</th>            <th>Reference Range</th>            <th>Abnormal Indicator</th>            <th>Comments</th>                                  </tr>        </thead>        <tbody>          <tr>            <td>HbA1c</td>            <td>60 mmol/mol</td>            <td>50 – 55 mmol/mol (diabetes)</td>            <td>H</td>                                              </tr>        </tbody>      </table>    </div>"
            },
            "entry": [
              {
                "reference": "Observation/8076823e-d0ff-40f6-badd-f5f980727aef"
              },
              {
                "reference": "Observation/98291f67-5456-4dc7-896d-5f50c4715c30"
              },
              {
                "reference": "Observation/671d65b2-9563-4a79-9b65-0ad66a8e984f"
              },
              {
                "reference": "DiagnosticReport/0759fe55-486f-4d0d-8c6e-697ea2a340dd"
              },
              {
                "reference": "Observation/a0d15982-8b8b-4ccd-bcf2-3f11ca7724e4"
              },
              {
                "reference": "DiagnosticReport/52c86edd-c155-46dc-bb5e-91507222af64"
              }
            ]
          },
          {
            "title": "Vital Signs",
            "code": {
              "coding": [
                {
                  "system": "http://loinc.org",
                  "code": "8716-3",
                  "display": "Vital signs"
                }
              ]
            },
            "text": {
              "status": "generated",
              "div": "<div xmlns='http://www.w3.org/1999/xhtml' xml:lang='en-NZ'><table>        <tbody>          <tr>            <th>Result Group:</th>            <td>Vital signs, weight, height, head circumference, oxygen saturation and BMI panel</td>            <th>Result Date:</th>            <td>29 Sep 2023 00:00</td>            <th>Result Status:</th>            <td>completed</td>          </tr>        </tbody>      </table>      <table xmlns=\"http://www.w3.org/1999/xhtml\">        <thead>          <tr>            <th>Result Name</th>            <th>Value</th>                                  </tr>        </thead>        <tbody>          <tr>            <td>Body temperature</td>            <td>37.5 C</td>                                  </tr>          <tr>            <td>Heart rate</td>            <td>84 beats/minute</td>                                  </tr>          <tr>            <td>Respiratory rate</td>            <td>18 breaths/minute</td>                                  </tr>          <tr>            <td>Systolic blood pressure</td>            <td>136 mm[Hg]</td>                                  </tr>          <tr>            <td>Diastolic blood pressure</td>            <td>88 mm[Hg]</td>                                  </tr>          <tr>            <td>Body height</td>            <td>1.84 cm</td>                                  </tr>          <tr>            <td>Body weight</td>            <td>104 kg</td>                                  </tr>        </tbody>      </table>            <table>        <tbody>          <tr>            <th>Result Group:</th>            <td>Vital signs, weight, height, head circumference, oxygen saturation and BMI panel</td>            <th>Result Date:</th>            <td>05 Mar 2023 00:00</td>            <th>Result Status:</th>            <td>completed</td>          </tr>        </tbody>      </table>      <table xmlns=\"http://www.w3.org/1999/xhtml\">        <thead>          <tr>            <th>Result Name</th>            <th>Value</th>                                  </tr>        </thead>        <tbody>          <tr>            <td>Body temperature</td>            <td>37.2 C</td>                                  </tr>          <tr>            <td>Heart rate</td>            <td>86 beats/minute</td>                                  </tr>          <tr>            <td>Respiratory rate</td>            <td>14 breaths/minute</td>                                  </tr>          <tr>            <td>Systolic blood pressure</td>            <td>130 mm[Hg]</td>                                  </tr>          <tr>            <td>Diastolic blood pressure</td>            <td>82 mm[Hg]</td>                                  </tr>          <tr>            <td>Body weight</td>            <td>103 kg</td>                                  </tr>        </tbody>      </table>    </div>"
            },
            "entry": [
              {
                "reference": "Observation/40fd5038-4427-42ac-abcb-fb247dc5614c"
              },
              {
                "reference": "Observation/171e1170-9e72-4eb6-a7cb-5261beaf9353"
              },
              {
                "reference": "Observation/b42fdc85-6798-4d29-9e24-fed29918a9a6"
              },
              {
                "reference": "Observation/b3bdafb9-27e5-4593-a3ee-81285d51c52f"
              },
              {
                "reference": "Observation/cb44d233-951b-4c88-8a36-d208054fcd4d"
              },
              {
                "reference": "Observation/d2a2890e-3f45-4c43-a068-b70cdc52cb64"
              },
              {
                "reference": "Observation/69e26557-db9e-465c-91d7-a1ef29cf5380"
              },
              {
                "reference": "Observation/4fb17221-4610-473d-a52b-87a4e2b02b3f"
              },
              {
                "reference": "Observation/df2a4899-3257-4aaf-bad0-be0ad0bf1a66"
              },
              {
                "reference": "Observation/d4aae611-3a87-4e13-a9cb-421d31085a2c"
              },
              {
                "reference": "Observation/a8e266ff-fa44-4c4d-802a-657dbbfe8202"
              }
            ]
          },
          {
            "title": "Social History",
            "code": {
              "coding": [
                {
                  "system": "http://loinc.org",
                  "code": "29762-2",
                  "display": "Social history Narrative"
                }
              ]
            },
            "text": {
              "status": "generated",
              "div": "<div xmlns='http://www.w3.org/1999/xhtml' xml:lang='en-NZ'><table xmlns=\"http://www.w3.org/1999/xhtml\">        <thead>          <tr>            <th>Type</th>            <th>Item</th>            <th>Date(s)</th>            <th>Comment</th>                                  </tr>        </thead>        <tbody>          <tr>            <td>other</td>            <td>Worked as a forestry worker.</td>                        <td>Worked as a forestry worker. Was always physically active until 2020 fall.Has had subsequent falls. Now depends on a walker or scooter.</td>                                  </tr>          <tr>            <td>smoking</td>            <td>Ex-smoker</td>            <td>30/06/2005</td>            <td>30 - pack - year smoking history, quit smoking ~2005.</td>                                  </tr>        </tbody>      </table>    </div>"
            },
            "entry": [
              {
                "reference": "Observation/87555d4c-35dc-45d2-b195-49d75c22e71f"
              }
            ]
          },
          {
            "title": "Functional Status",
            "code": {
              "coding": [
                {
                  "system": "http://loinc.org",
                  "code": "47420-5",
                  "display": "Functional status assessment note"
                }
              ]
            },
            "text": {
              "status": "generated",
              "div": "<div xmlns='http://www.w3.org/1999/xhtml' xml:lang='en-NZ'><table xmlns=\"http://www.w3.org/1999/xhtml\">        <thead>          <tr>            <th>Functional Condition</th>            <th>Effective Dates</th>            <th>Condition Status</th>          </tr>        </thead>        <tbody>          <tr>            <td>Often confused, struggles to communicate in English</td>                        <td>Active</td>          </tr>          <tr>            <td>Depends on a walking frame or electric scooter to get around.</td>                        <td>Active</td>          </tr>          <tr>            <td>Doesn’t leave the house much.</td>                        <td>Active</td>          </tr>          <tr>            <td>Relies on caregiver Cindy for assistance with many activities of daily living.</td>                        <td>Active</td>          </tr>          <tr>            <td>Family has made the decision to transfer Iosefa to residential care soon, arrangements currently being finalised.</td>                        <td>Active</td>          </tr>        </tbody>      </table>    </div>"
            },
            "entry": [
              {
                "reference": "Condition/d1c20adb-db1b-4e56-b5c2-1a878f4a25de"
              },
              {
                "reference": "Condition/c4f3c0c9-7406-4cec-b1f0-9e4a8bd32184"
              },
              {
                "reference": "Condition/03eacd1e-879a-4f6b-a779-be8a26606b15"
              },
              {
                "reference": "Condition/7bf70b55-0bd3-4844-a470-6a6653fe7b64"
              },
              {
                "reference": "Condition/3e1fb7d4-be05-43b8-abd3-dd794e31c55d"
              }
            ]
          }
        ]
      }
    },
    {
      "fullUrl": "https://terminz.azurewebsites.net/fhir/Patient/ZKT9319",
      "resource": {
        "resourceType": "Patient",
        "id": "ZKT9319",
        "text": {
          "status": "generated",
          "div": "<div xmlns='http://www.w3.org/1999/xhtml' xml:lang='en-NZ'>Name: Iosefa Test-Fuimaono</div>"
        },
        "identifier": [
          {
            "system": "https://standards.digital.health.nz/ns/nhi-id",
            "value": "ZKT9319"
          }
        ],
        "name": [
          {
            "use": "usual",
            "family": "Test-Fuimaono",
            "given": [
              "Iosefa"
            ]
          }
        ],
        "gender": "male",
        "birthDate": "1950-07-04",
        "address": [
          {
            "use": "home",
            "type": "physical",
            "line": [
              "Flat 1",
              "1 Brooklyn Road",
              "Claudelands"
            ],
            "city": "Hamilton",
            "postalCode": "3214",
            "country": "NZ"
          }
        ],
        "contact": [
          {
            "relationship": [
              {
                "coding": [
                  {
                    "system": "http://terminology.hl7.org/CodeSystem/v2-0131",
                    "code": "N",
                    "display": "Next-of-Kin"
                  }
                ]
              }
            ],
            "name": {
              "use": "usual",
              "family": "(Daughter)",
              "given": [
                "Cindy",
                "(Daughter)"
              ]
            }
          }
        ]
      }
    },
    {
      "fullUrl": "https://terminz.azurewebsites.net/fhir/Organization/a490c125-1ce4-4f18-8d0a-14b49d466aa2",
      "resource": {
        "resourceType": "Organization",
        "id": "a490c125-1ce4-4f18-8d0a-14b49d466aa2",
        "text": {
          "status": "generated",
          "div": "<div xmlns='http://www.w3.org/1999/xhtml' xml:lang='en-NZ'>Name: Fairfield Medical Centre</div>"
        },
        "identifier": [
          {
            "system": "https://standards.digital.health.nz/ns/hpi-facility-id",
            "value": "F0U044-C"
          }
        ],
        "name": "Fairfield Medical Centre"
      }
    },
    {
      "fullUrl": "https://terminz.azurewebsites.net/fhir/PractitionerRole/64b2381c-53a0-4243-96e9-803552fd3b36",
      "resource": {
        "resourceType": "PractitionerRole",
        "id": "64b2381c-53a0-4243-96e9-803552fd3b36",
        "text": {
          "status": "generated",
          "div": "<div xmlns='http://www.w3.org/1999/xhtml' xml:lang='en-NZ'>Role: Doctor</div>"
        },
        "practitioner": {
          "reference": "Practitioner/c1ae187b-c2e4-4386-935d-324cb9709a53"
        },
        "code": [
          {
            "coding": [
              {
                "system": "http://snomed.info/sct",
                "code": "158965000",
                "display": "Doctor"
              }
            ]
          }
        ]
      }
    },
    {
      "fullUrl": "https://terminz.azurewebsites.net/fhir/Practitioner/c1ae187b-c2e4-4386-935d-324cb9709a53",
      "resource": {
        "resourceType": "Practitioner",
        "id": "c1ae187b-c2e4-4386-935d-324cb9709a53",
        "text": {
          "status": "generated",
          "div": "<div xmlns='http://www.w3.org/1999/xhtml' xml:lang='en-NZ'>Name: Dr James Test-Smith</div>"
        },
        "name": [
          {
            "use": "usual",
            "family": "Test-Smith",
            "given": [
              "Dr",
              "James",
              "Test-Smith"
            ]
          }
        ]
      }
    },
    {
      "fullUrl": "https://terminz.azurewebsites.net/fhir/Organization/e9895ebe-7919-4d9a-9431-ce74a9825e36",
      "resource": {
        "resourceType": "Organization",
        "id": "e9895ebe-7919-4d9a-9431-ce74a9825e36",
        "text": {
          "status": "generated",
          "div": "<div xmlns='http://www.w3.org/1999/xhtml' xml:lang='en-NZ'>Name: Fairfield Medical Centre</div>"
        },
        "identifier": [
          {
            "system": "https://standards.digital.health.nz/ns/hpi-facility-id",
            "value": "F0U044-C"
          }
        ],
        "name": "Fairfield Medical Centre"
      }
    },
    {
      "fullUrl": "https://terminz.azurewebsites.net/fhir/Location/F05076-A",
      "resource": {
        "resourceType": "Location",
        "id": "F05076-A",
        "text": {
          "status": "generated",
          "div": "<div xmlns=\"http://www.w3.org/1999/xhtml\">\r\n  <h2>Waikato Hospital</h2>\r\n  <table>\r\n    <tr>\r\n      <td>Identifier</td>\r\n      <td>F05076-A</td>\r\n    </tr>\r\n    <tr>\r\n      <td>Identifier System</td>\r\n      <td>https://standards.digital.health.nz/ns/hpi-facility-id</td>\r\n    </tr>\r\n    <tr>\r\n      <td>Status</td>\r\n      <td>Active</td>\r\n    </tr>\r\n    <tr>\r\n      <td>Mode</td>\r\n      <td>Instance</td>\r\n    </tr>\r\n    <tr>\r\n      <td>Type</td>\r\n      <td>Location</td>\r\n    </tr>\r\n    <tr>\r\n      <td>Address</td>\r\n      <td>183 Pembroke Street, Waikato Hospital, Hamilton 3204</td>\r\n    </tr>\r\n  </table>\r\n</div>"
        },
        "identifier": [
          {
            "system": "https://standards.digital.health.nz/ns/hpi-facility-id",
            "value": "F05076-A"
          }
        ],
        "status": "active",
        "name": "Waikato Hospital"
      }
    },
    {
      "fullUrl": "https://terminz.azurewebsites.net/fhir/AllergyIntolerance/fd56e302-930a-487c-bca5-ab3be4ed19f9",
      "resource": {
        "resourceType": "AllergyIntolerance",
        "id": "fd56e302-930a-487c-bca5-ab3be4ed19f9",
        "text": {
          "status": "generated",
          "div": "<div xmlns='http://www.w3.org/1999/xhtml' xml:lang='en-NZ'>Flucloxacillin-containing product (Penicillin adverse reaction)</div>"
        },
        "clinicalStatus": {
          "coding": [
            {
              "system": "http://terminology.hl7.org/CodeSystem/allergyintolerance-clinical",
              "code": "active"
            }
          ]
        },
        "verificationStatus": {
          "coding": [
            {
              "system": "http://terminology.hl7.org/CodeSystem/allergyintolerance-verification",
              "code": "confirmed"
            }
          ]
        },
        "type": "allergy",
        "category": [
          "medication"
        ],
        "code": {
          "coding": [
            {
              "system": "http://snomed.info/sct",
              "code": "96067005",
              "display": "Flucloxacillin-containing product"
            }
          ]
        },
        "patient": {
          "reference": "Patient/ZKT9319"
        },
        "asserter": {
          "reference": "Patient/ZKT9319"
        },
        "reaction": [
          {
            "manifestation": [
              {
                "coding": [
                  {
                    "system": "http://snomed.info/sct",
                    "code": "292954005",
                    "display": "Penicillin adverse reaction"
                  }
                ]
              }
            ]
          }
        ]
      }
    },
    {
      "fullUrl": "https://terminz.azurewebsites.net/fhir/AllergyIntolerance/4e0daf12-9015-482a-bc24-f78238924e3a",
      "resource": {
        "resourceType": "AllergyIntolerance",
        "id": "4e0daf12-9015-482a-bc24-f78238924e3a",
        "text": {
          "status": "generated",
          "div": "<div xmlns='http://www.w3.org/1999/xhtml' xml:lang='en-NZ'>Diazepam-containing product (Diazepam adverse reaction)</div>"
        },
        "clinicalStatus": {
          "coding": [
            {
              "system": "http://terminology.hl7.org/CodeSystem/allergyintolerance-clinical",
              "code": "active"
            }
          ]
        },
        "verificationStatus": {
          "coding": [
            {
              "system": "http://terminology.hl7.org/CodeSystem/allergyintolerance-verification",
              "code": "confirmed"
            }
          ]
        },
        "type": "allergy",
        "category": [
          "medication"
        ],
        "code": {
          "coding": [
            {
              "system": "http://snomed.info/sct",
              "code": "48546005",
              "display": "Diazepam-containing product"
            }
          ]
        },
        "patient": {
          "reference": "Patient/ZKT9319"
        },
        "asserter": {
          "reference": "Patient/ZKT9319"
        },
        "reaction": [
          {
            "manifestation": [
              {
                "coding": [
                  {
                    "system": "http://snomed.info/sct",
                    "code": "292360004",
                    "display": "Diazepam adverse reaction"
                  }
                ]
              }
            ]
          }
        ]
      }
    },
    {
      "fullUrl": "https://terminz.azurewebsites.net/fhir/Condition/8cb53ee4-ad72-4857-ae37-18aec8a7bb1d",
      "resource": {
        "resourceType": "Condition",
        "id": "8cb53ee4-ad72-4857-ae37-18aec8a7bb1d",
        "text": {
          "status": "generated",
          "div": "<div xmlns='http://www.w3.org/1999/xhtml' xml:lang='en-NZ'>Postconcussion</div>"
        },
        "clinicalStatus": {
          "coding": [
            {
              "system": "http://terminology.hl7.org/CodeSystem/condition-clinical",
              "code": "active"
            }
          ]
        },
        "verificationStatus": {
          "coding": [
            {
              "system": "http://terminology.hl7.org/CodeSystem/condition-ver-status",
              "code": "confirmed"
            }
          ]
        },
        "category": [
          {
            "coding": [
              {
                "system": "http://terminology.hl7.org/CodeSystem/condition-category",
                "code": "problem-list-item",
                "display": "Problem List Item"
              }
            ]
          }
        ],
        "code": {
          "coding": [
            {
              "system": "http://snomed.info/sct",
              "code": "40425004",
              "display": "Postconcussion syndrome"
            }
          ]
        },
        "subject": {
          "reference": "Patient/ZKT9319"
        }
      }
    },
    {
      "fullUrl": "https://terminz.azurewebsites.net/fhir/Condition/4c936e8b-61c1-4313-a682-af560390ed88",
      "resource": {
        "resourceType": "Condition",
        "id": "4c936e8b-61c1-4313-a682-af560390ed88",
        "text": {
          "status": "generated",
          "div": "<div xmlns='http://www.w3.org/1999/xhtml' xml:lang='en-NZ'>Diabetes type 2 on insulin</div>"
        },
        "clinicalStatus": {
          "coding": [
            {
              "system": "http://terminology.hl7.org/CodeSystem/condition-clinical",
              "code": "active"
            }
          ]
        },
        "verificationStatus": {
          "coding": [
            {
              "system": "http://terminology.hl7.org/CodeSystem/condition-ver-status",
              "code": "confirmed"
            }
          ]
        },
        "category": [
          {
            "coding": [
              {
                "system": "http://terminology.hl7.org/CodeSystem/condition-category",
                "code": "problem-list-item",
                "display": "Problem List Item"
              }
            ]
          }
        ],
        "code": {
          "coding": [
            {
              "system": "http://snomed.info/sct",
              "code": "237599002",
              "display": "Diabetes type 2 on insulin"
            }
          ]
        },
        "subject": {
          "reference": "Patient/ZKT9319"
        }
      }
    },
    {
      "fullUrl": "https://terminz.azurewebsites.net/fhir/Condition/ed7906b5-e6fa-4f2d-9bfa-61374a99c779",
      "resource": {
        "resourceType": "Condition",
        "id": "ed7906b5-e6fa-4f2d-9bfa-61374a99c779",
        "text": {
          "status": "generated",
          "div": "<div xmlns='http://www.w3.org/1999/xhtml' xml:lang='en-NZ'>Gout</div>"
        },
        "clinicalStatus": {
          "coding": [
            {
              "system": "http://terminology.hl7.org/CodeSystem/condition-clinical",
              "code": "active"
            }
          ]
        },
        "verificationStatus": {
          "coding": [
            {
              "system": "http://terminology.hl7.org/CodeSystem/condition-ver-status",
              "code": "confirmed"
            }
          ]
        },
        "category": [
          {
            "coding": [
              {
                "system": "http://terminology.hl7.org/CodeSystem/condition-category",
                "code": "problem-list-item",
                "display": "Problem List Item"
              }
            ]
          }
        ],
        "code": {
          "coding": [
            {
              "system": "http://snomed.info/sct",
              "code": "90560007",
              "display": "Gout"
            }
          ]
        },
        "subject": {
          "reference": "Patient/ZKT9319"
        }
      }
    },
    {
      "fullUrl": "https://terminz.azurewebsites.net/fhir/Condition/618b4bb1-a691-4f8e-8ddf-a905a8da6245",
      "resource": {
        "resourceType": "Condition",
        "id": "618b4bb1-a691-4f8e-8ddf-a905a8da6245",
        "text": {
          "status": "generated",
          "div": "<div xmlns='http://www.w3.org/1999/xhtml' xml:lang='en-NZ'>Benign essential hypertension</div>"
        },
        "clinicalStatus": {
          "coding": [
            {
              "system": "http://terminology.hl7.org/CodeSystem/condition-clinical",
              "code": "active"
            }
          ]
        },
        "verificationStatus": {
          "coding": [
            {
              "system": "http://terminology.hl7.org/CodeSystem/condition-ver-status",
              "code": "confirmed"
            }
          ]
        },
        "category": [
          {
            "coding": [
              {
                "system": "http://terminology.hl7.org/CodeSystem/condition-category",
                "code": "problem-list-item",
                "display": "Problem List Item"
              }
            ]
          }
        ],
        "code": {
          "coding": [
            {
              "system": "http://snomed.info/sct",
              "code": "1201005",
              "display": "Benign essential hypertension"
            }
          ]
        },
        "subject": {
          "reference": "Patient/ZKT9319"
        }
      }
    },
    {
      "fullUrl": "https://terminz.azurewebsites.net/fhir/Condition/8df13759-39a6-453f-a907-e56143664a71",
      "resource": {
        "resourceType": "Condition",
        "id": "8df13759-39a6-453f-a907-e56143664a71",
        "text": {
          "status": "generated",
          "div": "<div xmlns='http://www.w3.org/1999/xhtml' xml:lang='en-NZ'>Anxiety disorder due to a general medical condition</div>"
        },
        "clinicalStatus": {
          "coding": [
            {
              "system": "http://terminology.hl7.org/CodeSystem/condition-clinical",
              "code": "inactive"
            }
          ]
        },
        "verificationStatus": {
          "coding": [
            {
              "system": "http://terminology.hl7.org/CodeSystem/condition-ver-status",
              "code": "confirmed"
            }
          ]
        },
        "category": [
          {
            "coding": [
              {
                "system": "http://terminology.hl7.org/CodeSystem/condition-category",
                "code": "problem-list-item",
                "display": "Problem List Item"
              }
            ]
          }
        ],
        "code": {
          "coding": [
            {
              "system": "http://snomed.info/sct",
              "code": "52910006",
              "display": "Anxiety disorder due to a general medical condition"
            }
          ]
        },
        "subject": {
          "reference": "Patient/ZKT9319"
        }
      }
    },
    {
      "fullUrl": "https://terminz.azurewebsites.net/fhir/Condition/cc3b4103-ada2-4846-ae4f-fcf8da697aaf",
      "resource": {
        "resourceType": "Condition",
        "id": "cc3b4103-ada2-4846-ae4f-fcf8da697aaf",
        "text": {
          "status": "generated",
          "div": "<div xmlns='http://www.w3.org/1999/xhtml' xml:lang='en-NZ'>Fracture of neck of femur</div>"
        },
        "clinicalStatus": {
          "coding": [
            {
              "system": "http://terminology.hl7.org/CodeSystem/condition-clinical",
              "code": "inactive"
            }
          ]
        },
        "verificationStatus": {
          "coding": [
            {
              "system": "http://terminology.hl7.org/CodeSystem/condition-ver-status",
              "code": "confirmed"
            }
          ]
        },
        "category": [
          {
            "coding": [
              {
                "system": "http://terminology.hl7.org/CodeSystem/condition-category",
                "code": "problem-list-item",
                "display": "Problem List Item"
              }
            ]
          }
        ],
        "code": {
          "coding": [
            {
              "system": "http://snomed.info/sct",
              "code": "5913000",
              "display": "Fracture of neck of femur"
            }
          ]
        },
        "subject": {
          "reference": "Patient/ZKT9319"
        }
      }
    },
    {
      "fullUrl": "https://terminz.azurewebsites.net/fhir/Condition/d1c20adb-db1b-4e56-b5c2-1a878f4a25de",
      "resource": {
        "resourceType": "Condition",
        "id": "d1c20adb-db1b-4e56-b5c2-1a878f4a25de",
        "text": {
          "status": "generated",
          "div": "<div xmlns='http://www.w3.org/1999/xhtml' xml:lang='en-NZ'>Often confused, struggles to communicate in English</div>"
        },
        "clinicalStatus": {
          "coding": [
            {
              "system": "http://terminology.hl7.org/CodeSystem/condition-clinical",
              "code": "active"
            }
          ]
        },
        "code": {
          "text": "Often confused, struggles to communicate in English"
        },
        "subject": {
          "reference": "Patient/ZKT9319"
        }
      }
    },
    {
      "fullUrl": "https://terminz.azurewebsites.net/fhir/Condition/c4f3c0c9-7406-4cec-b1f0-9e4a8bd32184",
      "resource": {
        "resourceType": "Condition",
        "id": "c4f3c0c9-7406-4cec-b1f0-9e4a8bd32184",
        "text": {
          "status": "generated",
          "div": "<div xmlns='http://www.w3.org/1999/xhtml' xml:lang='en-NZ'>Depends on a walking frame or electric scooter to get around.</div>"
        },
        "clinicalStatus": {
          "coding": [
            {
              "system": "http://terminology.hl7.org/CodeSystem/condition-clinical",
              "code": "active"
            }
          ]
        },
        "code": {
          "text": "Depends on a walking frame or electric scooter to get around."
        },
        "subject": {
          "reference": "Patient/ZKT9319"
        }
      }
    },
    {
      "fullUrl": "https://terminz.azurewebsites.net/fhir/Condition/03eacd1e-879a-4f6b-a779-be8a26606b15",
      "resource": {
        "resourceType": "Condition",
        "id": "03eacd1e-879a-4f6b-a779-be8a26606b15",
        "text": {
          "status": "generated",
          "div": "<div xmlns='http://www.w3.org/1999/xhtml' xml:lang='en-NZ'>Doesn’t leave the house much.</div>"
        },
        "clinicalStatus": {
          "coding": [
            {
              "system": "http://terminology.hl7.org/CodeSystem/condition-clinical",
              "code": "active"
            }
          ]
        },
        "code": {
          "text": "Doesn’t leave the house much."
        },
        "subject": {
          "reference": "Patient/ZKT9319"
        }
      }
    },
    {
      "fullUrl": "https://terminz.azurewebsites.net/fhir/Condition/7bf70b55-0bd3-4844-a470-6a6653fe7b64",
      "resource": {
        "resourceType": "Condition",
        "id": "7bf70b55-0bd3-4844-a470-6a6653fe7b64",
        "text": {
          "status": "generated",
          "div": "<div xmlns='http://www.w3.org/1999/xhtml' xml:lang='en-NZ'>Relies on caregiver Cindy for assistance with many activities of daily living.</div>"
        },
        "clinicalStatus": {
          "coding": [
            {
              "system": "http://terminology.hl7.org/CodeSystem/condition-clinical",
              "code": "active"
            }
          ]
        },
        "code": {
          "text": "Relies on caregiver Cindy for assistance with many activities of daily living."
        },
        "subject": {
          "reference": "Patient/ZKT9319"
        }
      }
    },
    {
      "fullUrl": "https://terminz.azurewebsites.net/fhir/Condition/3e1fb7d4-be05-43b8-abd3-dd794e31c55d",
      "resource": {
        "resourceType": "Condition",
        "id": "3e1fb7d4-be05-43b8-abd3-dd794e31c55d",
        "text": {
          "status": "generated",
          "div": "<div xmlns='http://www.w3.org/1999/xhtml' xml:lang='en-NZ'>Family has made the decision to transfer Iosefa to residential care soon, arrangements currently being finalised.</div>"
        },
        "clinicalStatus": {
          "coding": [
            {
              "system": "http://terminology.hl7.org/CodeSystem/condition-clinical",
              "code": "active"
            }
          ]
        },
        "code": {
          "text": "Family has made the decision to transfer Iosefa to residential care soon, arrangements currently being finalised."
        },
        "subject": {
          "reference": "Patient/ZKT9319"
        }
      }
    },
    {
      "fullUrl": "https://terminz.azurewebsites.net/fhir/MedicationStatement/c62e1b27-8387-4416-b7d9-726266833c2e",
      "resource": {
        "resourceType": "MedicationStatement",
        "id": "c62e1b27-8387-4416-b7d9-726266833c2e",
        "text": {
          "status": "generated",
          "div": "<div xmlns='http://www.w3.org/1999/xhtml' xml:lang='en-NZ'>10368421000116106 (insulin glargine 100 international units/mL injection, 10 mL vial)</div>"
        },
        "status": "active",
        "medicationCodeableConcept": {
          "coding": [
            {
              "system": "http://snomed.info/sct",
              "code": "126212009",
              "display": "Product containing insulin glargine (medicinal product)"
            }
          ],
          "text": "insulin glargine 100 international units/mL injection, 10 mL vial"
        },
        "subject": {
          "reference": "Patient/ZKT9319"
        },
        "effectiveDateTime": "2023-02-12",
        "informationSource": {
          "reference": "Organization/e9895ebe-7919-4d9a-9431-ce74a9825e36"
        },
        "dosage": [
          {
            "text": "Inject 20 units per day into your upper arms, abdomen or thights.You should vary the site where you inject each dose of Lantus. This helps reduce your risk of certain side effects, such as pits or lumps in your skin.",
            "timing": {
              "repeat": {
                "frequency": 1,
                "period": 1,
                "periodUnit": "d"
              }
            },
            "route": {
              "coding": [
                {
                  "system": "http://snomed.info/sct",
                  "code": "34206005",
                  "display": "subcutaneous route"
                }
              ]
            },
            "doseAndRate": [
              {
                "type": {
                  "coding": [
                    {
                      "system": "http://terminology.hl7.org/CodeSystem/dose-rate-type",
                      "code": "ordered",
                      "display": "Ordered"
                    }
                  ]
                },
                "doseQuantity": {
                  "value": 1,
                  "unit": "unit",
                  "system": "http://snomed.info/sct",
                  "code": "767525000"
                }
              }
            ]
          }
        ]
      }
    },
    {
      "fullUrl": "https://terminz.azurewebsites.net/fhir/MedicationStatement/2b3b03a8-e0f1-41b8-8ce9-6181d37731a6",
      "resource": {
        "resourceType": "MedicationStatement",
        "id": "2b3b03a8-e0f1-41b8-8ce9-6181d37731a6",
        "text": {
          "status": "generated",
          "div": "<div xmlns='http://www.w3.org/1999/xhtml' xml:lang='en-NZ'>47230201000116108 (dulaglutide 1.5 mg/0.5 mL injection, prefilled injection device)</div>"
        },
        "status": "active",
        "medicationCodeableConcept": {
          "coding": [
            {
              "system": "http://snomed.info/sct",
              "code": "714081009",
              "display": "Product containing dulaglutide (medicinal product)"
            }
          ],
          "text": "dulaglutide 1.5 mg/0.5 mL injection, prefilled injection device"
        },
        "subject": {
          "reference": "Patient/ZKT9319"
        },
        "effectiveDateTime": "2023-02-12",
        "informationSource": {
          "reference": "Organization/e9895ebe-7919-4d9a-9431-ce74a9825e36"
        },
        "dosage": [
          {
            "text": "Inject once a week, on the same day each week, into the skin of your stomach, thigh or upper arm. You can use the same area of your body each time, but choose a different place within that area. You can inject it any time of the day, with or without meals.",
            "route": {
              "coding": [
                {
                  "system": "http://snomed.info/sct",
                  "code": "34206005",
                  "display": "subcutaneous route"
                }
              ]
            },
            "doseAndRate": [
              {
                "type": {
                  "coding": [
                    {
                      "system": "http://terminology.hl7.org/CodeSystem/dose-rate-type",
                      "code": "ordered",
                      "display": "Ordered"
                    }
                  ]
                }
              }
            ]
          }
        ]
      }
    },
    {
      "fullUrl": "https://terminz.azurewebsites.net/fhir/MedicationStatement/7020da78-30e0-4c59-a190-f355aaa4f1b2",
      "resource": {
        "resourceType": "MedicationStatement",
        "id": "7020da78-30e0-4c59-a190-f355aaa4f1b2",
        "text": {
          "status": "generated",
          "div": "<div xmlns='http://www.w3.org/1999/xhtml' xml:lang='en-NZ'>44221701000116102 (metformin hydrochloride 1000 mg tablet)</div>"
        },
        "status": "active",
        "medicationCodeableConcept": {
          "coding": [
            {
              "system": "http://snomed.info/sct",
              "code": "109081006",
              "display": "Product containing metformin (medicinal product)"
            }
          ],
          "text": "metformin hydrochloride 1000 mg tablet"
        },
        "subject": {
          "reference": "Patient/ZKT9319"
        },
        "effectiveDateTime": "2023-02-12",
        "informationSource": {
          "reference": "Organization/e9895ebe-7919-4d9a-9431-ce74a9825e36"
        },
        "dosage": [
          {
            "text": "Take ONE tablet, two times a day, with meals.",
            "timing": {
              "repeat": {
                "frequency": 2,
                "period": 1,
                "periodUnit": "d"
              }
            },
            "route": {
              "coding": [
                {
                  "system": "http://snomed.info/sct",
                  "code": "26643006",
                  "display": "Oral route"
                }
              ]
            },
            "doseAndRate": [
              {
                "type": {
                  "coding": [
                    {
                      "system": "http://terminology.hl7.org/CodeSystem/dose-rate-type",
                      "code": "ordered",
                      "display": "Ordered"
                    }
                  ]
                },
                "doseQuantity": {
                  "value": 1,
                  "unit": "Tablet - unit of product usage",
                  "system": "http://snomed.info/sct",
                  "code": "428673006"
                }
              }
            ]
          }
        ]
      }
    },
    {
      "fullUrl": "https://terminz.azurewebsites.net/fhir/MedicationStatement/09babd06-fd3e-4177-bc5a-7106a1762285",
      "resource": {
        "resourceType": "MedicationStatement",
        "id": "09babd06-fd3e-4177-bc5a-7106a1762285",
        "text": {
          "status": "generated",
          "div": "<div xmlns='http://www.w3.org/1999/xhtml' xml:lang='en-NZ'>10109621000116108 (amlodipine 5 mg tablet)</div>"
        },
        "status": "active",
        "medicationCodeableConcept": {
          "coding": [
            {
              "system": "http://snomed.info/sct",
              "code": "108537001",
              "display": "Product containing amlodipine (medicinal product)"
            }
          ],
          "text": "amlodipine 5 mg tablet"
        },
        "subject": {
          "reference": "Patient/ZKT9319"
        },
        "effectiveDateTime": "2023-02-12",
        "informationSource": {
          "reference": "Organization/e9895ebe-7919-4d9a-9431-ce74a9825e36"
        },
        "dosage": [
          {
            "text": "Take ONE tablet at any time of day, but try to make sure it's around the same time every day.",
            "timing": {
              "repeat": {
                "frequency": 1,
                "period": 1,
                "periodUnit": "d"
              }
            },
            "route": {
              "coding": [
                {
                  "system": "http://snomed.info/sct",
                  "code": "26643006",
                  "display": "Oral route"
                }
              ]
            },
            "doseAndRate": [
              {
                "type": {
                  "coding": [
                    {
                      "system": "http://terminology.hl7.org/CodeSystem/dose-rate-type",
                      "code": "ordered",
                      "display": "Ordered"
                    }
                  ]
                },
                "doseQuantity": {
                  "value": 1,
                  "unit": "Tablet - unit of product usage",
                  "system": "http://snomed.info/sct",
                  "code": "428673006"
                }
              }
            ]
          }
        ]
      }
    },
    {
      "fullUrl": "https://terminz.azurewebsites.net/fhir/MedicationStatement/06a836e1-1b4d-44cf-a9a6-7a2e950cd8f9",
      "resource": {
        "resourceType": "MedicationStatement",
        "id": "06a836e1-1b4d-44cf-a9a6-7a2e950cd8f9",
        "text": {
          "status": "generated",
          "div": "<div xmlns='http://www.w3.org/1999/xhtml' xml:lang='en-NZ'>10195211000116102 (losartan potassium 50 mg tablet)</div>"
        },
        "status": "active",
        "medicationCodeableConcept": {
          "coding": [
            {
              "system": "http://snomed.info/sct",
              "code": "96309000",
              "display": "Product containing losartan (medicinal product)"
            }
          ],
          "text": "losartan potassium 50 mg tablet"
        },
        "subject": {
          "reference": "Patient/ZKT9319"
        },
        "effectiveDateTime": "2023-02-12",
        "informationSource": {
          "reference": "Organization/e9895ebe-7919-4d9a-9431-ce74a9825e36"
        },
        "dosage": [
          {
            "text": "Take ONE tablet daily",
            "timing": {
              "repeat": {
                "frequency": 1,
                "period": 1,
                "periodUnit": "d"
              }
            },
            "route": {
              "coding": [
                {
                  "system": "http://snomed.info/sct",
                  "code": "26643006",
                  "display": "Oral route"
                }
              ]
            },
            "doseAndRate": [
              {
                "type": {
                  "coding": [
                    {
                      "system": "http://terminology.hl7.org/CodeSystem/dose-rate-type",
                      "code": "ordered",
                      "display": "Ordered"
                    }
                  ]
                },
                "doseQuantity": {
                  "value": 1,
                  "unit": "Tablet - unit of product usage",
                  "system": "http://snomed.info/sct",
                  "code": "428673006"
                }
              }
            ]
          }
        ]
      }
    },
    {
      "fullUrl": "https://terminz.azurewebsites.net/fhir/MedicationStatement/58b22f52-66f3-4764-80f3-f39bf52b1d58",
      "resource": {
        "resourceType": "MedicationStatement",
        "id": "58b22f52-66f3-4764-80f3-f39bf52b1d58",
        "text": {
          "status": "generated",
          "div": "<div xmlns='http://www.w3.org/1999/xhtml' xml:lang='en-NZ'>10077081000116106 (aspirin 75 mg tablet: enteric-coated)</div>"
        },
        "status": "active",
        "medicationCodeableConcept": {
          "coding": [
            {
              "system": "http://snomed.info/sct",
              "code": "7947003",
              "display": "Product containing aspirin (medicinal product)"
            }
          ],
          "text": "aspirin 75 mg tablet: enteric-coated"
        },
        "subject": {
          "reference": "Patient/ZKT9319"
        },
        "effectiveDateTime": "2023-02-12",
        "informationSource": {
          "reference": "Organization/e9895ebe-7919-4d9a-9431-ce74a9825e36"
        },
        "dosage": [
          {
            "text": "Take ONE tablet daily",
            "timing": {
              "repeat": {
                "frequency": 1,
                "period": 1,
                "periodUnit": "d"
              }
            },
            "route": {
              "coding": [
                {
                  "system": "http://snomed.info/sct",
                  "code": "26643006",
                  "display": "Oral route"
                }
              ]
            },
            "doseAndRate": [
              {
                "type": {
                  "coding": [
                    {
                      "system": "http://terminology.hl7.org/CodeSystem/dose-rate-type",
                      "code": "ordered",
                      "display": "Ordered"
                    }
                  ]
                },
                "doseQuantity": {
                  "value": 1,
                  "unit": "Tablet - unit of product usage",
                  "system": "http://snomed.info/sct",
                  "code": "428673006"
                }
              }
            ]
          }
        ]
      }
    },
    {
      "fullUrl": "https://terminz.azurewebsites.net/fhir/MedicationStatement/68679ef7-8109-4fd2-a360-e11c69806afc",
      "resource": {
        "resourceType": "MedicationStatement",
        "id": "68679ef7-8109-4fd2-a360-e11c69806afc",
        "text": {
          "status": "generated",
          "div": "<div xmlns='http://www.w3.org/1999/xhtml' xml:lang='en-NZ'>10030521000116104 (allopurinol 300 mg tablet)</div>"
        },
        "status": "active",
        "medicationCodeableConcept": {
          "coding": [
            {
              "system": "http://snomed.info/sct",
              "code": "25246002",
              "display": "Product containing allopurinol (medicinal product)"
            }
          ],
          "text": "allopurinol 300 mg tablet"
        },
        "subject": {
          "reference": "Patient/ZKT9319"
        },
        "effectiveDateTime": "2023-02-12",
        "informationSource": {
          "reference": "Organization/e9895ebe-7919-4d9a-9431-ce74a9825e36"
        },
        "dosage": [
          {
            "text": "Take ONE tablet daily, after meals",
            "timing": {
              "repeat": {
                "frequency": 1,
                "period": 1,
                "periodUnit": "d"
              }
            },
            "route": {
              "coding": [
                {
                  "system": "http://snomed.info/sct",
                  "code": "26643006",
                  "display": "Oral route"
                }
              ]
            },
            "doseAndRate": [
              {
                "type": {
                  "coding": [
                    {
                      "system": "http://terminology.hl7.org/CodeSystem/dose-rate-type",
                      "code": "ordered",
                      "display": "Ordered"
                    }
                  ]
                },
                "doseQuantity": {
                  "value": 1,
                  "unit": "Tablet - unit of product usage",
                  "system": "http://snomed.info/sct",
                  "code": "428673006"
                }
              }
            ]
          }
        ]
      }
    },
    {
      "fullUrl": "https://terminz.azurewebsites.net/fhir/Immunization/7f760c0d-ed4c-4f33-ab92-5b3098fca67e",
      "resource": {
        "resourceType": "Immunization",
        "id": "7f760c0d-ed4c-4f33-ab92-5b3098fca67e",
        "text": {
          "status": "generated",
          "div": "<div xmlns='http://www.w3.org/1999/xhtml' xml:lang='en-NZ'>208 (Pfizer/BioNtech)</div>"
        },
        "status": "completed",
        "vaccineCode": {
          "coding": [
            {
              "system": "http://hl7.org/fhir/sid/cvx",
              "code": "208",
              "display": "SARS-COV-2 (COVID-19) vaccine, mRNA, spike protein, LNP, preservative free, 30 mcg/0.3mL dose"
            }
          ]
        },
        "patient": {
          "reference": "Patient/ZKT9319"
        },
        "occurrenceDateTime": "2022-02-01",
        "site": {
          "coding": [
            {
              "system": "http://snomed.info/sct",
              "code": "16217701000119102",
              "display": "Structure of left deltoid muscle"
            }
          ]
        },
        "route": {
          "coding": [
            {
              "system": "http://terminology.hl7.org/CodeSystem/v3-RouteOfAdministration",
              "code": "IM",
              "display": "Injection, intramuscular"
            }
          ]
        },
        "performer": [
          {
            "actor": {
              "reference": "Organization/e9895ebe-7919-4d9a-9431-ce74a9825e36"
            }
          }
        ],
        "protocolApplied": [
          {
            "series": "12 (At risk, no previous history)",
            "doseNumberPositiveInt": 2
          }
        ]
      }
    },
    {
      "fullUrl": "https://terminz.azurewebsites.net/fhir/Immunization/57a790c1-51bd-4a92-bb93-9de6344da90e",
      "resource": {
        "resourceType": "Immunization",
        "id": "57a790c1-51bd-4a92-bb93-9de6344da90e",
        "text": {
          "status": "generated",
          "div": "<div xmlns='http://www.w3.org/1999/xhtml' xml:lang='en-NZ'>208 (Pfizer/BioNtech)</div>"
        },
        "status": "completed",
        "vaccineCode": {
          "coding": [
            {
              "system": "http://hl7.org/fhir/sid/cvx",
              "code": "208",
              "display": "SARS-COV-2 (COVID-19) vaccine, mRNA, spike protein, LNP, preservative free, 30 mcg/0.3mL dose"
            }
          ]
        },
        "patient": {
          "reference": "Patient/ZKT9319"
        },
        "occurrenceDateTime": "2021-08-05",
        "site": {
          "coding": [
            {
              "system": "http://snomed.info/sct",
              "code": "16217701000119102",
              "display": "Structure of left deltoid muscle"
            }
          ]
        },
        "route": {
          "coding": [
            {
              "system": "http://terminology.hl7.org/CodeSystem/v3-RouteOfAdministration",
              "code": "IM",
              "display": "Injection, intramuscular"
            }
          ]
        },
        "performer": [
          {
            "actor": {
              "reference": "Organization/e9895ebe-7919-4d9a-9431-ce74a9825e36"
            }
          }
        ],
        "protocolApplied": [
          {
            "series": "12 (At risk, no previous history)",
            "doseNumberPositiveInt": 1
          }
        ]
      }
    },
    {
      "fullUrl": "https://terminz.azurewebsites.net/fhir/Immunization/692af6e4-0fcb-41ca-978c-5487f69d72b9",
      "resource": {
        "resourceType": "Immunization",
        "id": "692af6e4-0fcb-41ca-978c-5487f69d72b9",
        "text": {
          "status": "generated",
          "div": "<div xmlns='http://www.w3.org/1999/xhtml' xml:lang='en-NZ'>99006 (Influenza)</div>"
        },
        "status": "completed",
        "vaccineCode": {
          "coding": [
            {
              "system": "http://hl7.org/fhir/sid/cvx",
              "code": "141",
              "display": "Influenza, seasonal, injectable"
            }
          ]
        },
        "patient": {
          "reference": "Patient/ZKT9319"
        },
        "occurrenceDateTime": "2019-05-20",
        "site": {
          "coding": [
            {
              "system": "http://snomed.info/sct",
              "code": "16217701000119102",
              "display": "Structure of left deltoid muscle"
            }
          ]
        },
        "route": {
          "coding": [
            {
              "system": "http://terminology.hl7.org/CodeSystem/v3-RouteOfAdministration",
              "code": "IM",
              "display": "Injection, intramuscular"
            }
          ]
        },
        "performer": [
          {
            "actor": {
              "reference": "Organization/e9895ebe-7919-4d9a-9431-ce74a9825e36"
            }
          }
        ],
        "protocolApplied": [
          {
            "series": "1 (Over 65 years (Influenza))",
            "doseNumberPositiveInt": 1
          }
        ]
      }
    },
    {
      "fullUrl": "https://terminz.azurewebsites.net/fhir/Immunization/4d34572b-7f68-49e1-b38d-144d082d5c46",
      "resource": {
        "resourceType": "Immunization",
        "id": "4d34572b-7f68-49e1-b38d-144d082d5c46",
        "text": {
          "status": "generated",
          "div": "<div xmlns='http://www.w3.org/1999/xhtml' xml:lang='en-NZ'>20 (DTaP)</div>"
        },
        "status": "completed",
        "vaccineCode": {
          "coding": [
            {
              "system": "http://hl7.org/fhir/sid/cvx",
              "code": "20",
              "display": "diphtheria, tetanus toxoids and acellular pertussis vaccine"
            }
          ]
        },
        "patient": {
          "reference": "Patient/ZKT9319"
        },
        "occurrenceDateTime": "2019-04-24",
        "site": {
          "coding": [
            {
              "system": "http://snomed.info/sct",
              "code": "16217701000119102",
              "display": "Structure of left deltoid muscle"
            }
          ]
        },
        "route": {
          "coding": [
            {
              "system": "http://terminology.hl7.org/CodeSystem/v3-RouteOfAdministration",
              "code": "IM",
              "display": "Injection, intramuscular"
            }
          ]
        },
        "performer": [
          {
            "actor": {
              "reference": "Organization/e9895ebe-7919-4d9a-9431-ce74a9825e36"
            }
          }
        ],
        "protocolApplied": [
          {
            "series": "6 (Booster)",
            "doseNumberPositiveInt": 1
          }
        ]
      }
    },
    {
      "fullUrl": "https://terminz.azurewebsites.net/fhir/Immunization/0bdfe5a8-50a3-43f3-ad29-efff5c097cf4",
      "resource": {
        "resourceType": "Immunization",
        "id": "0bdfe5a8-50a3-43f3-ad29-efff5c097cf4",
        "text": {
          "status": "generated",
          "div": "<div xmlns='http://www.w3.org/1999/xhtml' xml:lang='en-NZ'> [Tetanus booster (given as DT)]</div>"
        },
        "status": "completed",
        "vaccineCode": {
          "coding": [
            {
              "system": "http://hl7.org/fhir/sid/cvx",
              "code": "138",
              "display": "tetanus and diphtheria toxoids, not adsorbed, for adult use"
            }
          ]
        },
        "patient": {
          "reference": "Patient/ZKT9319"
        },
        "occurrenceDateTime": "2018-04-05",
        "site": {
          "coding": [
            {
              "system": "http://snomed.info/sct",
              "code": "16217701000119102",
              "display": "Structure of left deltoid muscle"
            }
          ]
        },
        "route": {
          "coding": [
            {
              "system": "http://terminology.hl7.org/CodeSystem/v3-RouteOfAdministration",
              "code": "IM",
              "display": "Injection, intramuscular"
            }
          ]
        },
        "performer": [
          {
            "actor": {
              "reference": "Organization/e9895ebe-7919-4d9a-9431-ce74a9825e36"
            }
          }
        ],
        "protocolApplied": [
          {
            "series": "6 (Booster)",
            "doseNumberPositiveInt": 1
          }
        ]
      }
    },
    {
      "fullUrl": "https://terminz.azurewebsites.net/fhir/Immunization/cc2a8b26-d4fb-4cb3-823f-f29f5e89734e",
      "resource": {
        "resourceType": "Immunization",
        "id": "cc2a8b26-d4fb-4cb3-823f-f29f5e89734e",
        "text": {
          "status": "generated",
          "div": "<div xmlns='http://www.w3.org/1999/xhtml' xml:lang='en-NZ'>133 (PCV13)</div>"
        },
        "status": "completed",
        "vaccineCode": {
          "coding": [
            {
              "system": "http://hl7.org/fhir/sid/cvx",
              "code": "133",
              "display": "pneumococcal conjugate vaccine, 13 valent"
            }
          ]
        },
        "patient": {
          "reference": "Patient/ZKT9319"
        },
        "occurrenceDateTime": "2015-09-25",
        "site": {
          "coding": [
            {
              "system": "http://snomed.info/sct",
              "code": "16217701000119102",
              "display": "Structure of left deltoid muscle"
            }
          ]
        },
        "route": {
          "coding": [
            {
              "system": "http://terminology.hl7.org/CodeSystem/v3-RouteOfAdministration",
              "code": "IM",
              "display": "Injection, intramuscular"
            }
          ]
        },
        "performer": [
          {
            "actor": {
              "reference": "Organization/e9895ebe-7919-4d9a-9431-ce74a9825e36"
            }
          }
        ],
        "protocolApplied": [
          {
            "series": "21 (PCV catch up)",
            "doseNumberPositiveInt": 1
          }
        ]
      }
    },
    {
      "fullUrl": "https://terminz.azurewebsites.net/fhir/Immunization/f8b395ef-99b7-4010-a63a-63f221530106",
      "resource": {
        "resourceType": "Immunization",
        "id": "f8b395ef-99b7-4010-a63a-63f221530106",
        "text": {
          "status": "generated",
          "div": "<div xmlns='http://www.w3.org/1999/xhtml' xml:lang='en-NZ'>99006 (Influenza)</div>"
        },
        "status": "completed",
        "vaccineCode": {
          "coding": [
            {
              "system": "http://hl7.org/fhir/sid/cvx",
              "code": "141",
              "display": "Influenza, seasonal, injectable"
            }
          ]
        },
        "patient": {
          "reference": "Patient/ZKT9319"
        },
        "occurrenceDateTime": "2015-05-01",
        "site": {
          "coding": [
            {
              "system": "http://snomed.info/sct",
              "code": "16217701000119102",
              "display": "Structure of left deltoid muscle"
            }
          ]
        },
        "route": {
          "coding": [
            {
              "system": "http://terminology.hl7.org/CodeSystem/v3-RouteOfAdministration",
              "code": "IM",
              "display": "Injection, intramuscular"
            }
          ]
        },
        "performer": [
          {
            "actor": {
              "reference": "Organization/e9895ebe-7919-4d9a-9431-ce74a9825e36"
            }
          }
        ],
        "protocolApplied": [
          {
            "series": "1 (Over 65 years (Influenza))",
            "doseNumberPositiveInt": 1
          }
        ]
      }
    },
    {
      "fullUrl": "https://terminz.azurewebsites.net/fhir/Procedure/043354f1-0ccf-4e69-a59e-aa66efa42f8a",
      "resource": {
        "resourceType": "Procedure",
        "id": "043354f1-0ccf-4e69-a59e-aa66efa42f8a",
        "text": {
          "status": "generated",
          "div": "<div xmlns='http://www.w3.org/1999/xhtml' xml:lang='en-NZ'>Operative procedure on hip</div>"
        },
        "status": "unknown",
        "code": {
          "coding": [
            {
              "system": "http://snomed.info/sct",
              "code": "265132005",
              "display": "Primary open reduction and internal fixation of proximal femoral fracture with screw/nail and plate device"
            }
          ],
          "text": "Operative procedure on hip"
        },
        "subject": {
          "reference": "Patient/ZKT9319"
        },
        "performedDateTime": "2020-09-01",
        "location": {
          "reference": "Location/F05076-A"
        }
      }
    },
    {
      "fullUrl": "https://terminz.azurewebsites.net/fhir/Procedure/21809a15-827b-4f38-8fff-12dd2ec041c1",
      "resource": {
        "resourceType": "Procedure",
        "id": "21809a15-827b-4f38-8fff-12dd2ec041c1",
        "text": {
          "status": "generated",
          "div": "<div xmlns='http://www.w3.org/1999/xhtml' xml:lang='en-NZ'>Hand closure</div>"
        },
        "status": "unknown",
        "code": {
          "coding": [
            {
              "system": "http://snomed.info/sct",
              "code": "287903004",
              "display": "Suturing of hand"
            }
          ],
          "text": "Hand closure"
        },
        "subject": {
          "reference": "Patient/ZKT9319"
        },
        "performedDateTime": "2018-03-31"
      }
    },
    {
      "fullUrl": "https://terminz.azurewebsites.net/fhir/DiagnosticReport/0759fe55-486f-4d0d-8c6e-697ea2a340dd",
      "resource": {
        "resourceType": "DiagnosticReport",
        "id": "0759fe55-486f-4d0d-8c6e-697ea2a340dd",
        "text": {
          "status": "generated",
          "div": "<div xmlns='http://www.w3.org/1999/xhtml' xml:lang='en-NZ'> [Lipids]</div>"
        },
        "status": "final",
        "category": [
          {
            "coding": [
              {
                "system": "http://terminology.hl7.org/CodeSystem/v2-0074",
                "code": "LAB",
                "display": "Laboratory"
              }
            ]
          }
        ],
        "code": {
          "text": "[Lipids]"
        },
        "subject": {
          "reference": "Patient/ZKT9319"
        },
        "effectiveDateTime": "2023-03-05T00:00:00+00:00",
        "result": [
          {
            "reference": "Observation/8076823e-d0ff-40f6-badd-f5f980727aef"
          },
          {
            "reference": "Observation/98291f67-5456-4dc7-896d-5f50c4715c30"
          },
          {
            "reference": "Observation/671d65b2-9563-4a79-9b65-0ad66a8e984f"
          }
        ]
      }
    },
    {
      "fullUrl": "https://terminz.azurewebsites.net/fhir/DiagnosticReport/52c86edd-c155-46dc-bb5e-91507222af64",
      "resource": {
        "resourceType": "DiagnosticReport",
        "id": "52c86edd-c155-46dc-bb5e-91507222af64",
        "text": {
          "status": "generated",
          "div": "<div xmlns='http://www.w3.org/1999/xhtml' xml:lang='en-NZ'> [HbA1C]</div>"
        },
        "status": "final",
        "category": [
          {
            "coding": [
              {
                "system": "http://terminology.hl7.org/CodeSystem/v2-0074",
                "code": "LAB",
                "display": "Laboratory"
              }
            ]
          }
        ],
        "code": {
          "text": "[HbA1C]"
        },
        "subject": {
          "reference": "Patient/ZKT9319"
        },
        "effectiveDateTime": "2023-03-05T00:00:00+00:00",
        "result": [
          {
            "reference": "Observation/a0d15982-8b8b-4ccd-bcf2-3f11ca7724e4"
          }
        ]
      }
    },
    {
      "fullUrl": "https://terminz.azurewebsites.net/fhir/Observation/8076823e-d0ff-40f6-badd-f5f980727aef",
      "resource": {
        "resourceType": "Observation",
        "id": "8076823e-d0ff-40f6-badd-f5f980727aef",
        "text": {
          "status": "generated",
          "div": "<div xmlns='http://www.w3.org/1999/xhtml' xml:lang='en-NZ'> [Total cholesterol:HDL ratio]</div>"
        },
        "status": "final",
        "category": [
          {
            "coding": [
              {
                "system": "http://terminology.hl7.org/CodeSystem/observation-category",
                "code": "laboratory"
              }
            ]
          }
        ],
        "code": {
          "text": "[Total cholesterol:HDL ratio]"
        },
        "subject": {
          "reference": "Patient/ZKT9319"
        },
        "effectiveDateTime": "2023-03-05T00:00:00+00:00",
        "performer": [
          {
            "reference": "PractitionerRole/32fdf845-4b24-40c2-8138-3e335c30c381"
          }
        ],
        "valueQuantity": {
          "value": 5.1,
          "unit": "mmol/L",
          "system": "http://unitsofmeasure.org",
          "code": "mmol/L"
        },
        "interpretation": [
          {
            "coding": [
              {
                "system": "http://terminology.hl7.org/CodeSystem/v3-ObservationInterpretation",
                "code": "H",
                "display": "High"
              }
            ]
          }
        ],
        "referenceRange": [
          {
            "text": "<4 mmol/L (high risk)"
          }
        ]
      }
    },
    {
      "fullUrl": "https://terminz.azurewebsites.net/fhir/Observation/98291f67-5456-4dc7-896d-5f50c4715c30",
      "resource": {
        "resourceType": "Observation",
        "id": "98291f67-5456-4dc7-896d-5f50c4715c30",
        "text": {
          "status": "generated",
          "div": "<div xmlns='http://www.w3.org/1999/xhtml' xml:lang='en-NZ'> [HDL Cholesterol]</div>"
        },
        "status": "final",
        "category": [
          {
            "coding": [
              {
                "system": "http://terminology.hl7.org/CodeSystem/observation-category",
                "code": "laboratory"
              }
            ]
          }
        ],
        "code": {
          "text": "[HDL Cholesterol]"
        },
        "subject": {
          "reference": "Patient/ZKT9319"
        },
        "effectiveDateTime": "2023-03-05T00:00:00+00:00",
        "performer": [
          {
            "reference": "PractitionerRole/32fdf845-4b24-40c2-8138-3e335c30c381"
          }
        ],
        "valueQuantity": {
          "value": 1.5,
          "unit": "mmol/L",
          "system": "http://unitsofmeasure.org",
          "code": "mmol/L"
        },
        "interpretation": [
          {
            "coding": [
              {
                "system": "http://terminology.hl7.org/CodeSystem/v3-ObservationInterpretation",
                "code": "N",
                "display": "Normal"
              }
            ]
          }
        ],
        "referenceRange": [
          {
            "text": ">1 mmol/L"
          }
        ]
      }
    },
    {
      "fullUrl": "https://terminz.azurewebsites.net/fhir/Observation/671d65b2-9563-4a79-9b65-0ad66a8e984f",
      "resource": {
        "resourceType": "Observation",
        "id": "671d65b2-9563-4a79-9b65-0ad66a8e984f",
        "text": {
          "status": "generated",
          "div": "<div xmlns='http://www.w3.org/1999/xhtml' xml:lang='en-NZ'> [LDL Cholesterol]</div>"
        },
        "status": "final",
        "category": [
          {
            "coding": [
              {
                "system": "http://terminology.hl7.org/CodeSystem/observation-category",
                "code": "laboratory"
              }
            ]
          }
        ],
        "code": {
          "text": "[LDL Cholesterol]"
        },
        "subject": {
          "reference": "Patient/ZKT9319"
        },
        "effectiveDateTime": "2023-03-05T00:00:00+00:00",
        "performer": [
          {
            "reference": "PractitionerRole/32fdf845-4b24-40c2-8138-3e335c30c381"
          }
        ],
        "valueQuantity": {
          "value": 3.4,
          "unit": "mmol/L",
          "system": "http://unitsofmeasure.org",
          "code": "mmol/L"
        },
        "interpretation": [
          {
            "coding": [
              {
                "system": "http://terminology.hl7.org/CodeSystem/v3-ObservationInterpretation",
                "code": "H",
                "display": "High"
              }
            ]
          }
        ],
        "referenceRange": [
          {
            "text": "<1.8 mmol/L"
          }
        ]
      }
    },
    {
      "fullUrl": "https://terminz.azurewebsites.net/fhir/Observation/a0d15982-8b8b-4ccd-bcf2-3f11ca7724e4",
      "resource": {
        "resourceType": "Observation",
        "id": "a0d15982-8b8b-4ccd-bcf2-3f11ca7724e4",
        "text": {
          "status": "generated",
          "div": "<div xmlns='http://www.w3.org/1999/xhtml' xml:lang='en-NZ'> [HbA1c]</div>"
        },
        "status": "final",
        "category": [
          {
            "coding": [
              {
                "system": "http://terminology.hl7.org/CodeSystem/observation-category",
                "code": "laboratory"
              }
            ]
          }
        ],
        "code": {
          "text": "[HbA1c]"
        },
        "subject": {
          "reference": "Patient/ZKT9319"
        },
        "effectiveDateTime": "2023-03-05T00:00:00+00:00",
        "performer": [
          {
            "reference": "PractitionerRole/32fdf845-4b24-40c2-8138-3e335c30c381"
          }
        ],
        "valueQuantity": {
          "value": 60,
          "unit": "mmol/mol",
          "system": "http://unitsofmeasure.org",
          "code": "mmol/mol"
        },
        "interpretation": [
          {
            "coding": [
              {
                "system": "http://terminology.hl7.org/CodeSystem/v3-ObservationInterpretation",
                "code": "H",
                "display": "High"
              }
            ]
          }
        ],
        "referenceRange": [
          {
            "text": "50 – 55 mmol/mol (diabetes)"
          }
        ]
      }
    },
    {
      "fullUrl": "https://terminz.azurewebsites.net/fhir/Observation/40fd5038-4427-42ac-abcb-fb247dc5614c",
      "resource": {
        "resourceType": "Observation",
        "id": "40fd5038-4427-42ac-abcb-fb247dc5614c",
        "text": {
          "status": "generated",
          "div": "<div xmlns='http://www.w3.org/1999/xhtml' xml:lang='en-NZ'>Body temperature</div>"
        },
        "status": "final",
        "category": [
          {
            "coding": [
              {
                "system": "http://terminology.hl7.org/CodeSystem/observation-category",
                "code": "vital-signs"
              }
            ]
          }
        ],
        "code": {
          "coding": [
            {
              "system": "http://loinc.org",
              "code": "8310-5",
              "display": "Body temperature"
            }
          ]
        },
        "subject": {
          "reference": "Patient/ZKT9319"
        },
        "effectiveDateTime": "2023-09-29T00:00:00+00:00",
        "performer": [
          {
            "reference": "PractitionerRole/64b2381c-53a0-4243-96e9-803552fd3b36"
          }
        ],
        "valueQuantity": {
          "value": 37.5,
          "unit": "Cel",
          "system": "http://unitsofmeasure.org",
          "code": "Cel"
        }
      }
    },
    {
      "fullUrl": "https://terminz.azurewebsites.net/fhir/Observation/171e1170-9e72-4eb6-a7cb-5261beaf9353",
      "resource": {
        "resourceType": "Observation",
        "id": "171e1170-9e72-4eb6-a7cb-5261beaf9353",
        "text": {
          "status": "generated",
          "div": "<div xmlns='http://www.w3.org/1999/xhtml' xml:lang='en-NZ'>Heart rate</div>"
        },
        "status": "final",
        "category": [
          {
            "coding": [
              {
                "system": "http://terminology.hl7.org/CodeSystem/observation-category",
                "code": "vital-signs"
              }
            ]
          }
        ],
        "code": {
          "coding": [
            {
              "system": "http://loinc.org",
              "code": "8867-4",
              "display": "Heart rate"
            }
          ]
        },
        "subject": {
          "reference": "Patient/ZKT9319"
        },
        "effectiveDateTime": "2023-09-29T00:00:00+00:00",
        "performer": [
          {
            "reference": "PractitionerRole/64b2381c-53a0-4243-96e9-803552fd3b36"
          }
        ],
        "valueQuantity": {
          "value": 84,
          "unit": "/min",
          "system": "http://unitsofmeasure.org",
          "code": "/min"
        }
      }
    },
    {
      "fullUrl": "https://terminz.azurewebsites.net/fhir/Observation/b42fdc85-6798-4d29-9e24-fed29918a9a6",
      "resource": {
        "resourceType": "Observation",
        "id": "b42fdc85-6798-4d29-9e24-fed29918a9a6",
        "text": {
          "status": "generated",
          "div": "<div xmlns='http://www.w3.org/1999/xhtml' xml:lang='en-NZ'>Respiratory rate</div>"
        },
        "status": "final",
        "category": [
          {
            "coding": [
              {
                "system": "http://terminology.hl7.org/CodeSystem/observation-category",
                "code": "vital-signs"
              }
            ]
          }
        ],
        "code": {
          "coding": [
            {
              "system": "http://loinc.org",
              "code": "9279-1",
              "display": "Respiratory rate"
            }
          ]
        },
        "subject": {
          "reference": "Patient/ZKT9319"
        },
        "effectiveDateTime": "2023-09-29T00:00:00+00:00",
        "performer": [
          {
            "reference": "PractitionerRole/64b2381c-53a0-4243-96e9-803552fd3b36"
          }
        ],
        "valueQuantity": {
          "value": 18,
          "unit": "/min",
          "system": "http://unitsofmeasure.org",
          "code": "/min"
        }
      }
    },
    {
      "fullUrl": "https://terminz.azurewebsites.net/fhir/Observation/b3bdafb9-27e5-4593-a3ee-81285d51c52f",
      "resource": {
        "resourceType": "Observation",
        "id": "b3bdafb9-27e5-4593-a3ee-81285d51c52f",
        "text": {
          "status": "generated",
          "div": "<div xmlns='http://www.w3.org/1999/xhtml' xml:lang='en-NZ'>Blood pressure panel with all children optional</div>"
        },
        "status": "final",
        "category": [
          {
            "coding": [
              {
                "system": "http://terminology.hl7.org/CodeSystem/observation-category",
                "code": "vital-signs"
              }
            ]
          }
        ],
        "code": {
          "coding": [
            {
              "system": "http://loinc.org",
              "code": "85354-9",
              "display": "Blood pressure panel with all children optional"
            }
          ]
        },
        "subject": {
          "reference": "Patient/ZKT9319"
        },
        "effectiveDateTime": "2023-09-29T00:00:00+00:00",
        "performer": [
          {
            "reference": "PractitionerRole/64b2381c-53a0-4243-96e9-803552fd3b36"
          }
        ],
        "component": [
          {
            "code": {
              "coding": [
                {
                  "system": "http://loinc.org",
                  "code": "8480-6",
                  "display": "Systolic blood pressure"
                }
              ]
            },
            "valueQuantity": {
              "value": 136,
              "unit": "mmHg",
              "system": "http://unitsofmeasure.org",
              "code": "mm[Hg]"
            }
          },
          {
            "code": {
              "coding": [
                {
                  "system": "http://loinc.org",
                  "code": "8462-4",
                  "display": "Diastolic blood pressure"
                }
              ]
            },
            "valueQuantity": {
              "value": 88,
              "unit": "mmHg",
              "system": "http://unitsofmeasure.org",
              "code": "mm[Hg]"
            }
          }
        ]
      }
    },
    {
      "fullUrl": "https://terminz.azurewebsites.net/fhir/Observation/cb44d233-951b-4c88-8a36-d208054fcd4d",
      "resource": {
        "resourceType": "Observation",
        "id": "cb44d233-951b-4c88-8a36-d208054fcd4d",
        "text": {
          "status": "generated",
          "div": "<div xmlns='http://www.w3.org/1999/xhtml' xml:lang='en-NZ'>Body height</div>"
        },
        "status": "final",
        "category": [
          {
            "coding": [
              {
                "system": "http://terminology.hl7.org/CodeSystem/observation-category",
                "code": "vital-signs"
              }
            ]
          }
        ],
        "code": {
          "coding": [
            {
              "system": "http://loinc.org",
              "code": "8302-2",
              "display": "Body height"
            }
          ]
        },
        "subject": {
          "reference": "Patient/ZKT9319"
        },
        "effectiveDateTime": "2023-09-29T00:00:00+00:00",
        "performer": [
          {
            "reference": "PractitionerRole/64b2381c-53a0-4243-96e9-803552fd3b36"
          }
        ],
        "valueQuantity": {
          "value": 1.84,
          "unit": "cm",
          "system": "http://unitsofmeasure.org",
          "code": "cm"
        }
      }
    },
    {
      "fullUrl": "https://terminz.azurewebsites.net/fhir/Observation/d2a2890e-3f45-4c43-a068-b70cdc52cb64",
      "resource": {
        "resourceType": "Observation",
        "id": "d2a2890e-3f45-4c43-a068-b70cdc52cb64",
        "text": {
          "status": "generated",
          "div": "<div xmlns='http://www.w3.org/1999/xhtml' xml:lang='en-NZ'>Body weight</div>"
        },
        "status": "final",
        "category": [
          {
            "coding": [
              {
                "system": "http://terminology.hl7.org/CodeSystem/observation-category",
                "code": "vital-signs"
              }
            ]
          }
        ],
        "code": {
          "coding": [
            {
              "system": "http://loinc.org",
              "code": "29463-7",
              "display": "Body weight"
            }
          ]
        },
        "subject": {
          "reference": "Patient/ZKT9319"
        },
        "effectiveDateTime": "2023-09-29T00:00:00+00:00",
        "performer": [
          {
            "reference": "PractitionerRole/64b2381c-53a0-4243-96e9-803552fd3b36"
          }
        ],
        "valueQuantity": {
          "value": 104,
          "unit": "kg",
          "system": "http://unitsofmeasure.org",
          "code": "kg"
        }
      }
    },
    {
      "fullUrl": "https://terminz.azurewebsites.net/fhir/Observation/69e26557-db9e-465c-91d7-a1ef29cf5380",
      "resource": {
        "resourceType": "Observation",
        "id": "69e26557-db9e-465c-91d7-a1ef29cf5380",
        "text": {
          "status": "generated",
          "div": "<div xmlns='http://www.w3.org/1999/xhtml' xml:lang='en-NZ'>Body temperature</div>"
        },
        "status": "final",
        "category": [
          {
            "coding": [
              {
                "system": "http://terminology.hl7.org/CodeSystem/observation-category",
                "code": "vital-signs"
              }
            ]
          }
        ],
        "code": {
          "coding": [
            {
              "system": "http://loinc.org",
              "code": "8310-5",
              "display": "Body temperature"
            }
          ]
        },
        "subject": {
          "reference": "Patient/ZKT9319"
        },
        "effectiveDateTime": "2023-03-05T00:00:00+00:00",
        "performer": [
          {
            "reference": "PractitionerRole/64b2381c-53a0-4243-96e9-803552fd3b36"
          }
        ],
        "valueQuantity": {
          "value": 37.2,
          "unit": "Cel",
          "system": "http://unitsofmeasure.org",
          "code": "Cel"
        }
      }
    },
    {
      "fullUrl": "https://terminz.azurewebsites.net/fhir/Observation/4fb17221-4610-473d-a52b-87a4e2b02b3f",
      "resource": {
        "resourceType": "Observation",
        "id": "4fb17221-4610-473d-a52b-87a4e2b02b3f",
        "text": {
          "status": "generated",
          "div": "<div xmlns='http://www.w3.org/1999/xhtml' xml:lang='en-NZ'>Heart rate</div>"
        },
        "status": "final",
        "category": [
          {
            "coding": [
              {
                "system": "http://terminology.hl7.org/CodeSystem/observation-category",
                "code": "vital-signs"
              }
            ]
          }
        ],
        "code": {
          "coding": [
            {
              "system": "http://loinc.org",
              "code": "8867-4",
              "display": "Heart rate"
            }
          ]
        },
        "subject": {
          "reference": "Patient/ZKT9319"
        },
        "effectiveDateTime": "2023-03-05T00:00:00+00:00",
        "performer": [
          {
            "reference": "PractitionerRole/64b2381c-53a0-4243-96e9-803552fd3b36"
          }
        ],
        "valueQuantity": {
          "value": 86,
          "unit": "/min",
          "system": "http://unitsofmeasure.org",
          "code": "/min"
        }
      }
    },
    {
      "fullUrl": "https://terminz.azurewebsites.net/fhir/Observation/df2a4899-3257-4aaf-bad0-be0ad0bf1a66",
      "resource": {
        "resourceType": "Observation",
        "id": "df2a4899-3257-4aaf-bad0-be0ad0bf1a66",
        "text": {
          "status": "generated",
          "div": "<div xmlns='http://www.w3.org/1999/xhtml' xml:lang='en-NZ'>Respiratory rate</div>"
        },
        "status": "final",
        "category": [
          {
            "coding": [
              {
                "system": "http://terminology.hl7.org/CodeSystem/observation-category",
                "code": "vital-signs"
              }
            ]
          }
        ],
        "code": {
          "coding": [
            {
              "system": "http://loinc.org",
              "code": "9279-1",
              "display": "Respiratory rate"
            }
          ]
        },
        "subject": {
          "reference": "Patient/ZKT9319"
        },
        "effectiveDateTime": "2023-03-05T00:00:00+00:00",
        "performer": [
          {
            "reference": "PractitionerRole/64b2381c-53a0-4243-96e9-803552fd3b36"
          }
        ],
        "valueQuantity": {
          "value": 14,
          "unit": "/min",
          "system": "http://unitsofmeasure.org",
          "code": "/min"
        }
      }
    },
    {
      "fullUrl": "https://terminz.azurewebsites.net/fhir/Observation/d4aae611-3a87-4e13-a9cb-421d31085a2c",
      "resource": {
        "resourceType": "Observation",
        "id": "d4aae611-3a87-4e13-a9cb-421d31085a2c",
        "text": {
          "status": "generated",
          "div": "<div xmlns='http://www.w3.org/1999/xhtml' xml:lang='en-NZ'>Blood pressure panel with all children optional</div>"
        },
        "status": "final",
        "category": [
          {
            "coding": [
              {
                "system": "http://terminology.hl7.org/CodeSystem/observation-category",
                "code": "vital-signs"
              }
            ]
          }
        ],
        "code": {
          "coding": [
            {
              "system": "http://loinc.org",
              "code": "85354-9",
              "display": "Blood pressure panel with all children optional"
            }
          ]
        },
        "subject": {
          "reference": "Patient/ZKT9319"
        },
        "effectiveDateTime": "2023-03-05T00:00:00+00:00",
        "performer": [
          {
            "reference": "PractitionerRole/64b2381c-53a0-4243-96e9-803552fd3b36"
          }
        ],
        "component": [
          {
            "code": {
              "coding": [
                {
                  "system": "http://loinc.org",
                  "code": "8480-6",
                  "display": "Systolic blood pressure"
                }
              ]
            },
            "valueQuantity": {
              "value": 130,
              "unit": "mmHg",
              "system": "http://unitsofmeasure.org",
              "code": "mm[Hg]"
            }
          },
          {
            "code": {
              "coding": [
                {
                  "system": "http://loinc.org",
                  "code": "8462-4",
                  "display": "Diastolic blood pressure"
                }
              ]
            },
            "valueQuantity": {
              "value": 82,
              "unit": "mmHg",
              "system": "http://unitsofmeasure.org",
              "code": "mm[Hg]"
            }
          }
        ]
      }
    },
    {
      "fullUrl": "https://terminz.azurewebsites.net/fhir/Observation/a8e266ff-fa44-4c4d-802a-657dbbfe8202",
      "resource": {
        "resourceType": "Observation",
        "id": "a8e266ff-fa44-4c4d-802a-657dbbfe8202",
        "text": {
          "status": "generated",
          "div": "<div xmlns='http://www.w3.org/1999/xhtml' xml:lang='en-NZ'>Body weight</div>"
        },
        "status": "final",
        "category": [
          {
            "coding": [
              {
                "system": "http://terminology.hl7.org/CodeSystem/observation-category",
                "code": "vital-signs"
              }
            ]
          }
        ],
        "code": {
          "coding": [
            {
              "system": "http://loinc.org",
              "code": "29463-7",
              "display": "Body weight"
            }
          ]
        },
        "subject": {
          "reference": "Patient/ZKT9319"
        },
        "effectiveDateTime": "2023-03-05T00:00:00+00:00",
        "performer": [
          {
            "reference": "PractitionerRole/64b2381c-53a0-4243-96e9-803552fd3b36"
          }
        ],
        "valueQuantity": {
          "value": 103,
          "unit": "kg",
          "system": "http://unitsofmeasure.org",
          "code": "kg"
        }
      }
    },
    {
      "fullUrl": "https://terminz.azurewebsites.net/fhir/Observation/87555d4c-35dc-45d2-b195-49d75c22e71f",
      "resource": {
        "resourceType": "Observation",
        "id": "87555d4c-35dc-45d2-b195-49d75c22e71f",
        "text": {
          "status": "generated",
          "div": "<div xmlns='http://www.w3.org/1999/xhtml' xml:lang='en-NZ'>Tobacco smoking status</div>"
        },
        "status": "final",
        "category": [
          {
            "coding": [
              {
                "system": "http://terminology.hl7.org/CodeSystem/observation-category",
                "code": "social-history"
              }
            ]
          }
        ],
        "code": {
          "coding": [
            {
              "system": "http://loinc.org",
              "code": "72166-2",
              "display": "Tobacco smoking status"
            }
          ]
        },
        "subject": {
          "reference": "Patient/ZKT9319"
        },
        "effectiveDateTime": "2005-06-30",
        "performer": [
          {
            "reference": "Patient/ZKT9319"
          }
        ],
        "valueCodeableConcept": {
          "coding": [
            {
              "system": "http://loinc.org",
              "code": "LA15920-4",
              "display": "Former smoker"
            }
          ]
        },
        "note": [
          {
            "text": "30 - pack - year smoking history, quit smoking ~2005."
          }
        ]
      }
    },
    {
      "fullUrl": "https://terminz.azurewebsites.net/fhir/PractitionerRole/32fdf845-4b24-40c2-8138-3e335c30c381",
      "resource": {
        "resourceType": "PractitionerRole",
        "id": "32fdf845-4b24-40c2-8138-3e335c30c381",
        "text": {
          "status": "generated",
          "div": "<div xmlns='http://www.w3.org/1999/xhtml' xml:lang='en-NZ'>Role: Clinical pathologist</div>"
        },
        "code": [
          {
            "coding": [
              {
                "system": "http://snomed.info/sct",
                "code": "81464008",
                "display": "Clinical pathologist"
              }
            ]
          }
        ]
      }
    }
  ]
}