{
    "resourceType": "Bundle",
    "meta": {
        "profile":  [
            "http://kvalitetsregistre.no/fhir/StructureDefinition/colonoscopyreport-bundle-gastronet"
        ]
    },
    "identifier": {
        "system": "http://kreftregisteret.no/fhir/NamingSystem/colonoscopy-report-id",
        "value": "1b31da0f-d1d4-40ec-b7a6-59269a8b6549"
    },
    "type": "collection",
    "timestamp": "2021-11-16T13:28:17.239+01:00",
    "entry":  [
        {
            "fullUrl": "http://testdata.no/fhir/Patient/1",
            "resource": {
                "resourceType": "Patient",
                "id": "1",
                "meta": {
                    "profile":  [
                        "http://kvalitetsregistre.no/fhir/StructureDefinition/colonoscopyreport-patient-gastronet"
                    ]
                },
                "identifier":  [
                    {
                        "system": "urn:oid:2.16.578.1.12.4.1.4.1",
                        "value": "13116900216"
                    }
                ],
                "name":  [
                    {
                        "extension":  [
                            {
                                "url": "http://hl7.no/fhir/StructureDefinition/no-basis-middlename",
                                "valueString": "Erik"
                            }
                        ],
                        "family": "Line",
                        "given":  [
                            "Danser"
                        ]
                    },
                    {
                        "extension":  [
                            {
                                "url": "http://hl7.no/fhir/StructureDefinition/no-basis-middlename",
                                "valueString": "Erik"
                            }
                        ],
                        "family": "Eksempel",
                        "given":  [
                            "Espen"
                        ]
                    }
                ]
            }
        },
        {
            "fullUrl": "http://testdata.no/fhir/Procedure/1",
            "resource": {
                "resourceType": "Procedure",
                "id": "1",
                "meta": {
                    "profile":  [
                        "http://kvalitetsregistre.no/fhir/StructureDefinition/colonoscopyreport-colonoscopy-gastronet"
                    ]
                },
                "extension":  [
                    {
                        "url": "http://kreftregisteret.no/fhir/StructureDefinition/colonoscopyreport-laxatives-extension",
                        "extension":  [
                            {
                                "url": "type",
                                "valueCodeableConcept": {
                                    "coding":  [
                                        {
                                            "system": "http://ehelse.no/fhir/CodeSystem/colonoscopy-model-specific-codes",
                                            "code": "laxabon"
                                        }
                                    ]
                                }
                            },
                            {
                                "url": "takenAsSplitDose",
                                "valueCodeableConcept": {
                                    "coding":  [
                                        {
                                            "system": "http://terminology.hl7.org/CodeSystem/v3-NullFlavor",
                                            "code": "NA"
                                        }
                                    ]
                                }
                            }
                        ]
                    },
                    {
                        "url": "http://kreftregisteret.no/fhir/StructureDefinition/colonoscopyreport-complicationconsequence-extension",
                        "valueCodeableConcept": {
                            "coding":  [
                                {
                                    "system": "http://snomed.info/sct",
                                    "code": "32485007",
                                    "display": "Hospital admission (procedure)"
                                }
                            ]
                        }
                    },
                    {
                        "url": "http://kreftregisteret.no/fhir/StructureDefinition/colonoscopyreport-partofbowelreached-extension",
                        "valueCodeableConcept": {
                            "coding":  [
                                {
                                    "system": "http://snomed.info/sct",
                                    "code": "32713005",
                                    "display": "Cecum structure (body structure)"
                                }
                            ]
                        }
                    },
                    {
                        "url": "http://kreftregisteret.no/fhir/StructureDefinition/colonoscopyreport-withdrawaltime",
                        "valueDuration": {
                            "value": 2,
                            "unit": "min",
                            "system": "http://unitsofmeasure.org",
                            "code": "min"
                        }
                    },
                    {
                        "url": "http://kreftregisteret.no/fhir/StructureDefinition/colonoscopyreport-caecumreacheddocumentation-extension",
                        "valueBoolean": true
                    },
                    {
                        "url": "http://kreftregisteret.no/fhir/StructureDefinition/colonoscopyreport-medicationgiven-extension",
                        "valueBoolean": true
                    },
                    {
                        "url": "http://kreftregisteret.no/fhir/StructureDefinition/colonoscopyreport-sedationlevel-extension",
                        "valueCodeableConcept": {
                            "coding":  [
                                {
                                    "system": "http://snomed.info/sct",
                                    "code": "10821000202101",
                                    "display": "Narkose eller dyp sedasjon med anestesistøtte"
                                }
                            ]
                        }
                    }
                ],
                "status": "completed",
                "category": {
                    "coding":  [
                        {
                            "system": "http://snomed.info/sct",
                            "code": "446745002",
                            "display": "Diagnostisk med biopsi"
                        }
                    ]
                },
                "code": {
                    "coding":  [
                        {
                            "system": "http://snomed.info/sct",
                            "code": "73761001",
                            "display": "Colonoscopy (procedure)"
                        }
                    ]
                },
                "subject": {
                    "reference": "http://testdata.no/fhir/Patient/1"
                },
                "performedDateTime": "2020-11-01T15:00:00+01:00",
                "performer":  [
                    {
                        "function": {
                            "coding":  [
                                {
                                    "system": "http://snomed.info/sct",
                                    "code": "8921000202108",
                                    "display": "Primary performing endoscopist (person)"
                                }
                            ]
                        },
                        "actor": {
                            "reference": "http://testdata.no/fhir/Practitioner/2"
                        }
                    },
                    {
                        "function": {
                            "coding":  [
                                {
                                    "system": "http://snomed.info/sct",
                                    "code": "8951000202101",
                                    "display": "Main nurse assisting procedure (person)"
                                }
                            ]
                        },
                        "actor": {
                            "reference": "http://testdata.no/fhir/Practitioner/3"
                        }
                    }
                ],
                "location": {
                    "reference": "http://testdata.no/fhir/Location/1"
                },
                "reasonCode":  [
                    {
                        "coding":  [
                            {
                                "system": "http://ehelse.no/fhir/CodeSystem/colonoscopy-model-specific-codes",
                                "code": "indikasjon-polyppkontroll",
                                "display": "Polyppkontroll"
                            }
                        ]
                    }
                ],
                "report":  [
                    {
                        "reference": "http://testdata.no/fhir/DiagnosticReport/1"
                    }
                ],
                "complication":  [
                    {
                        "coding":  [
                            {
                                "system": "http://snomed.info/sct",
                                "code": "712510007",
                                "display": "Intestinal hemorrhage (disorder)"
                            }
                        ]
                    }
                ]
            }
        },
        {
            "fullUrl": "http://testdata.no/fhir/DiagnosticReport/1",
            "resource": {
                "resourceType": "DiagnosticReport",
                "id": "1",
                "meta": {
                    "profile":  [
                        "http://kvalitetsregistre.no/fhir/StructureDefinition/colonoscopyreport-diagnosticreport-gastronet"
                    ]
                },
                "status": "final",
                "code": {
                    "coding":  [
                        {
                            "system": "http://snomed.info/sct",
                            "code": "73761001",
                            "display": "Colonoscopy (procedure)"
                        }
                    ]
                },
                "subject": {
                    "reference": "http://testdata.no/fhir/Patient/1"
                },
                "result":  [
                    {
                        "reference": "http://testdata.no/fhir/Observation/lesion-1"
                    },
                    {
                        "reference": "http://testdata.no/fhir/Observation/bbps"
                    },
                    {
                        "reference": "http://testdata.no/fhir/Observation/numberoflesions"
                    },
                    {
                        "reference": "http://testdata.no/fhir/Observation/lumen"
                    }
                ],
                "conclusionCode":  [
                    {
                        "extension":  [
                            {
                                "url": "http://kreftregisteret.no/fhir/StructureDefinition/diagnosticreport-conclusion-ismaindiagnosis",
                                "valueBoolean": true
                            }
                        ],
                        "coding":  [
                            {
                                "system": "http://hl7.org/fhir/sid/icd-10",
                                "code": "C18.0",
                                "display": "Malignant neoplasm: Caecum"
                            }
                        ]
                    }
                ]
            }
        },
        {
            "fullUrl": "http://testdata.no/fhir/Observation/numberoflesions",
            "resource": {
                "resourceType": "Observation",
                "id": "numberoflesions",
                "meta": {
                    "profile":  [
                        "http://kvalitetsregistre.no/fhir/StructureDefinition/colonoscopyreport-numberoflesions-gastronet"
                    ]
                },
                "status": "final",
                "code": {
                    "coding":  [
                        {
                            "system": "http://snomed.info/sct",
                            "code": "246206008"
                        }
                    ]
                },
                "valueQuantity": {
                    "value": 1
                }
            }
        },
        {
            "fullUrl": "http://testdata.no/fhir/Observation/lesion-1",
            "resource": {
                "resourceType": "Observation",
                "id": "lesion-1",
                "meta": {
                    "profile":  [
                        "http://kvalitetsregistre.no/fhir/StructureDefinition/colonoscopyreport-lesion-gastronet"
                    ]
                },
                "identifier":  [
                    {
                        "system": "http://kreftregisteret.no/fhir/NamingSystem/lesion-number",
                        "value": "1"
                    }
                ],
                "status": "final",
                "code": {
                    "coding":  [
                        {
                            "system": "http://snomed.info/sct",
                            "code": "300577008",
                            "display": "Finding of lesion (finding)"
                        }
                    ]
                },
                "component":  [
                    {
                        "code": {
                            "coding":  [
                                {
                                    "system": "http://snomed.info/sct",
                                    "code": "10291000202102",
                                    "display": "Lesion size given by largest diameter (observable entity)"
                                }
                            ]
                        },
                        "valueQuantity": {
                            "value": 3,
                            "unit": "mm",
                            "system": "http://unitsofmeasure.org",
                            "code": "mm"
                        }
                    }
                ]
            }
        },
        {
            "fullUrl": "http://testdata.no/fhir/Observation/bbps",
            "resource": {
                "resourceType": "Observation",
                "id": "bbps",
                "meta": {
                    "profile":  [
                        "http://kvalitetsregistre.no/fhir/StructureDefinition/colonoscopyreport-bostonbowelpreparationscale-gastronet"
                    ]
                },
                "status": "final",
                "code": {
                    "coding":  [
                        {
                            "system": "http://snomed.info/sct",
                            "code": "722818007",
                            "display": "Boston bowel preparation scale (assessment scale)"
                        }
                    ]
                },
                "component":  [
                    {
                        "code": {
                            "coding":  [
                                {
                                    "system": "http://snomed.info/sct",
                                    "code": "8901000202102",
                                    "display": "Boston bowel preparation skala høyre kolon"
                                }
                            ]
                        },
                        "valueCodeableConcept": {
                            "coding":  [
                                {
                                    "system": "http://snomed.info/sct",
                                    "code": "10291000132101",
                                    "display": "Portion of mucosa of colon segment seen, but other areas of colon segment not well seen due to staining, residual stool and/or opaque liquid (finding)"
                                }
                            ]
                        }
                    },
                    {
                        "code": {
                            "coding":  [
                                {
                                    "system": "http://snomed.info/sct",
                                    "code": "8911000202100",
                                    "display": "Boston bowel preparation skala kolon transversum"
                                }
                            ]
                        },
                        "valueCodeableConcept": {
                            "coding":  [
                                {
                                    "system": "http://snomed.info/sct",
                                    "code": "10301000132102",
                                    "display": "Minor amount of residual staining, small fragments of stool and/or opaque liquid, but mucosa of colon segment seen well (finding)"
                                }
                            ]
                        }
                    },
                    {
                        "code": {
                            "coding":  [
                                {
                                    "system": "http://snomed.info/sct",
                                    "code": "8891000202103",
                                    "display": "Boston bowel preparation skala venstre kolon"
                                }
                            ]
                        },
                        "valueCodeableConcept": {
                            "coding":  [
                                {
                                    "system": "http://snomed.info/sct",
                                    "code": "10311000132100",
                                    "display": "Entire mucosa of colon segment seen well with no residual staining, small fragments of stool or opaque liquid (finding)"
                                }
                            ]
                        }
                    }
                ]
            }
        },
        {
            "fullUrl": "http://testdata.no/fhir/Observation/lumen",
            "resource": {
                "resourceType": "Observation",
                "id": "lumen",
                "meta": {
                    "profile":  [
                        "http://kvalitetsregistre.no/fhir/StructureDefinition/colonoscopyreport-lumen-gastronet"
                    ]
                },
                "status": "final",
                "code": {
                    "coding":  [
                        {
                            "system": "http://snomed.info/sct",
                            "code": "15991000202102",
                            "display": "Appearance of intestinal lumen"
                        }
                    ]
                },
                "valueCodeableConcept": {
                    "coding":  [
                        {
                            "system": "http://snomed.info/sct",
                            "code": "17621005",
                            "display": "Normal (qualifier value)"
                        }
                    ]
                }
            }
        },
        {
            "fullUrl": "http://testdata.no/fhir/List/medication-list",
            "resource": {
                "resourceType": "List",
                "id": "medication-list",
                "meta": {
                    "profile":  [
                        "http://kvalitetsregistre.no/fhir/StructureDefinition/colonoscopyreport-medicationlist-gastronet"
                    ]
                },
                "status": "current",
                "mode": "snapshot",
                "code": {
                    "coding":  [
                        {
                            "system": "http://terminology.hl7.org/CodeSystem/list-example-use-codes",
                            "code": "medications"
                        }
                    ]
                },
                "subject": {
                    "reference": "http://testdata.no/fhir/Patient/1"
                },
                "entry":  [
                    {
                        "item": {
                            "reference": "http://testdata.no/fhir/MedicationStatement/2"
                        }
                    },
                    {
                        "item": {
                            "reference": "http://testdata.no/fhir/MedicationStatement/3"
                        }
                    }
                ]
            }
        },
        {
            "fullUrl": "http://testdata.no/fhir/MedicationStatement/2",
            "resource": {
                "resourceType": "MedicationStatement",
                "id": "2",
                "meta": {
                    "profile":  [
                        "http://kvalitetsregistre.no/fhir/StructureDefinition/colonoscopyreport-current-medication-gastronet"
                    ]
                },
                "status": "active",
                "medicationCodeableConcept": {
                    "coding":  [
                        {
                            "system": "http://snomed.info/sct",
                            "code": "372756006",
                            "display": "Warfarin (substance)"
                        }
                    ]
                },
                "subject": {
                    "reference": "http://testdata.no/fhir/Patient/1"
                }
            }
        },
        {
            "fullUrl": "http://testdata.no/fhir/MedicationStatement/3",
            "resource": {
                "resourceType": "MedicationStatement",
                "id": "3",
                "meta": {
                    "profile":  [
                        "http://kvalitetsregistre.no/fhir/StructureDefinition/colonoscopyreport-current-medication-gastronet"
                    ]
                },
                "status": "active",
                "medicationCodeableConcept": {
                    "coding":  [
                        {
                            "system": "http://snomed.info/sct",
                            "code": "387458008",
                            "display": "Aspirin (substance)"
                        }
                    ]
                },
                "subject": {
                    "reference": "http://testdata.no/fhir/Patient/1"
                }
            }
        },
        {
            "fullUrl": "http://testdata.no/fhir/Practitioner/2",
            "resource": {
                "resourceType": "Practitioner",
                "id": "2",
                "meta": {
                    "profile":  [
                        "http://hl7.no/fhir/StructureDefinition/no-basis-Practitioner"
                    ]
                },
                "identifier":  [
                    {
                        "system": "urn:oid:2.16.578.1.12.4.1.4.4",
                        "value": "958100012"
                    }
                ]
            }
        },
        {
            "fullUrl": "http://testdata.no/fhir/Practitioner/3",
            "resource": {
                "resourceType": "Practitioner",
                "id": "3",
                "meta": {
                    "profile":  [
                        "http://hl7.no/fhir/StructureDefinition/no-basis-Practitioner"
                    ]
                },
                "identifier":  [
                    {
                        "system": "urn:oid:2.16.578.1.12.4.1.4.4",
                        "value": "012345678"
                    }
                ]
            }
        },
        {
            "fullUrl": "http://testdata.no/fhir/Location/1",
            "resource": {
                "resourceType": "Location",
                "id": "1",
                "meta": {
                    "profile":  [
                        "http://hl7.no/fhir/StructureDefinition/no-basis-Location"
                    ]
                },
                "managingOrganization": {
                    "reference": "http://testdata.no/fhir/Organization/1"
                }
            }
        },
        {
            "fullUrl": "http://testdata.no/fhir/Organization/1",
            "resource": {
                "resourceType": "Organization",
                "id": "1",
                "meta": {
                    "profile":  [
                        "http://hl7.no/fhir/StructureDefinition/no-basis-Organization"
                    ]
                },
                "identifier":  [
                    {
                        "system": "urn:oid:2.16.578.1.12.4.1.4.102",
                        "value": "46372864397"
                    }
                ],
                "name": "Test Clinic"
            }
        }
    ]
}