{
  "resourceType" : "Parameters",
  "id" : "payer-multi-member-match-in",
  "meta" : {
    "profile" : ["http://hl7.org/fhir/us/davinci-pdex/StructureDefinition/pdex-parameters-multi-member-match-bundle-in"]
  },
  "parameter" : [{
    "name" : "MemberBundle",
    "part" : [{
      "name" : "MemberPatient",
      "resource" : {
        "resourceType" : "Patient",
        "id" : "1",
        "name" : [{
          "use" : "official",
          "family" : "Person",
          "given" : ["Patricia", "Ann"]
        }]
      }
    },
    {
      "name" : "CoverageToMatch",
      "resource" : {
        "resourceType" : "Coverage",
        "id" : "9876B1",
        "status" : "draft",
        "subscriberId" : "1234564321",
        "beneficiary" : {
          "reference" : "Patient/1"
        },
        "relationship" : {
          "coding" : [{
            "system" : "http://terminology.hl7.org/CodeSystem/subscriber-relationship",
            "code" : "self"
          }]
        },
        "period" : {
          "start" : "2011-05-23",
          "end" : "2012-05-23"
        },
        "payor" : [{
          "display" : "Old Health Plan"
        }],
        "class" : [{
          "type" : {
            "coding" : [{
              "system" : "http://terminology.hl7.org/CodeSystem/coverage-class",
              "code" : "group"
            },
            {
              "system" : "http://terminology.hl7.org/CodeSystem/coverage-class",
              "code" : "subplan"
            }]
          },
          "value" : "P7"
        },
        {
          "type" : {
            "coding" : [{
              "system" : "http://terminology.hl7.org/CodeSystem/coverage-class",
              "code" : "plan"
            },
            {
              "system" : "http://terminology.hl7.org/CodeSystem/coverage-class",
              "code" : "class"
            }]
          },
          "value" : "SILVER"
        }]
      }
    },
    {
      "name" : "Consent",
      "resource" : {
        "resourceType" : "Consent",
        "id" : "consent-1",
        "status" : "active",
        "scope" : {
          "coding" : [{
            "system" : "http://terminology.hl7.org/CodeSystem/consentscope",
            "code" : "patient-privacy"
          }]
        },
        "category" : [{
          "coding" : [{
            "system" : "http://terminology.hl7.org/CodeSystem/v3-ActCode",
            "code" : "IDSCL"
          }]
        }],
        "patient" : {
          "reference" : "Patient/1"
        },
        "performer" : [{
          "reference" : "Patient/1"
        }],
        "sourceReference" : {
          "reference" : "http://example.org/DocumentReference/someconsent-1"
        },
        "policy" : [{
          "uri" : "http://hl7.org/fhir/us/davinci-hrex/StructureDefinition-hrex-consent.html#regular"
        }]
      }
    },
    {
      "name" : "CoverageToLink",
      "resource" : {
        "resourceType" : "Coverage",
        "id" : "AA87654",
        "status" : "active",
        "subscriberId" : "23456754321",
        "beneficiary" : {
          "reference" : "Patient/1"
        },
        "relationship" : {
          "coding" : [{
            "system" : "http://terminology.hl7.org/CodeSystem/subscriber-relationship",
            "code" : "self"
          }]
        },
        "payor" : [{
          "identifier" : {
            "system" : "http://hl7.org/fhir/sid/us-npi",
            "value" : "0123456789"
          },
          "display" : "New Health Plan"
        }]
      }
    }]
  },
  {
    "name" : "MemberBundle",
    "part" : [{
      "name" : "MemberPatient",
      "resource" : {
        "resourceType" : "Patient",
        "id" : "2",
        "name" : [{
          "use" : "official",
          "family" : "Smith",
          "given" : ["William",
          "John"]
        }],
        "gender" : "female",
        "birthDate" : "1958-12-25"
      }
    },
    {
      "name" : "CoverageToMatch",
      "resource" : {
        "resourceType" : "Coverage",
        "id" : "876B10",
        "status" : "draft",
        "subscriberId" : "9876543789",
        "beneficiary" : {
          "reference" : "Patient/2"
        },
        "relationship" : {
          "coding" : [{
            "system" : "http://terminology.hl7.org/CodeSystem/subscriber-relationship",
            "code" : "self"
          }]
        },
        "period" : {
          "start" : "2011-05-23",
          "end" : "2012-05-23"
        },
        "payor" : [{
          "identifier" : {
            "system" : "http://hl7.org/fhir/sid/us-npi",
            "value" : "9876543210"
          },
          "display" : "Old Health Plan"
        }],
        "class" : [{
          "type" : {
            "coding" : [{
              "system" : "http://terminology.hl7.org/CodeSystem/coverage-class",
              "code" : "group"
            },
            {
              "system" : "http://terminology.hl7.org/CodeSystem/coverage-class",
              "code" : "subplan"
            }]
          },
          "value" : "P7"
        },
        {
          "type" : {
            "coding" : [{
              "system" : "http://terminology.hl7.org/CodeSystem/coverage-class",
              "code" : "plan"
            },
            {
              "system" : "http://terminology.hl7.org/CodeSystem/coverage-class",
              "code" : "class"
            }]
          },
          "value" : "SILVER"
        }]
      }
    },
    {
      "name" : "Consent",
      "resource" : {
        "resourceType" : "Consent",
        "id" : "consent-2",
        "status" : "active",
        "scope" : {
          "coding" : [{
            "system" : "http://terminology.hl7.org/CodeSystem/consentscope",
            "code" : "patient-privacy"
          }]
        },
        "category" : [{
          "coding" : [{
            "system" : "http://terminology.hl7.org/CodeSystem/v3-ActCode",
            "code" : "IDSCL"
          }]
        }],
        "patient" : {
          "reference" : "Patient/2"
        },
        "performer" : [{
          "reference" : "Patient/2"
        }],
        "sourceReference" : {
          "reference" : "http://example.org/DocumentReference/someconsen-2"
        },
        "policy" : [{
          "uri" : "http://hl7.org/fhir/us/davinci-hrex/StructureDefinition-hrex-consent.html#regular"
        }]
      }
    },
    {
      "name" : "CoverageToLink",
      "resource" : {
        "resourceType" : "Coverage",
        "id" : "AA87654",
        "status" : "active",
        "subscriberId" : "432156789",
        "beneficiary" : {
          "reference" : "Patient/2"
        },
        "relationship" : {
          "coding" : [{
            "system" : "http://terminology.hl7.org/CodeSystem/subscriber-relationship",
            "code" : "self"
          }]
        },
        "payor" : [{
          "identifier" : {
            "system" : "http://hl7.org/fhir/sid/us-npi",
            "value" : "0123456789"
          },
          "display" : "New Health Plan"
        }]
      }
    }]
  }]
}