{
  "resourceType" : "Bundle",
  "id" : "ref-policy-base",
  "type" : "collection",
  "entry" : [{
    "fullUrl" : "urn:uuid:9ce2a97b-5cab-4986-814f-4734016e6084",
    "resource" : {
      "resourceType" : "List",
      "id" : "smp-medlist-1",
      "status" : "current",
      "mode" : "working",
      "code" : {
        "coding" : [{
          "system" : "http://loinc.org",
          "code" : "104207-6"
        }]
      },
      "subject" : {
        "reference" : "Patient/example",
        "display" : "US Core Example Patient"
      },
      "date" : "2024-07-01",
      "source" : {
        "reference" : "Practitioner/practitioner-1"
      },
      "entry" : [{
        "date" : "2024-07-01",
        "item" : {
          "reference" : "urn:uuid:23ac0bc6-0959-4181-8af0-6db5e2ef8176"
        }
      },{
        "date" : "2024-07-01",
        "item" : {
          "reference" : "urn:uuid:23ac0bc6-0959-4181-8af0-6db5e2ef8176-X"
        }
      }]
    }
  },
  {
    "fullUrl" : "http://hl7.org/fhir/test/Patient/example",
    "resource" : {
      "resourceType" : "Patient",
      "id" : "example",
      "name" : [{
        "text" : "John Smith"
      }],
      "generalPractitioner" : [{
        "reference" : "Practitioner/practitioner-1"
      }]
    }
  },
  {
    "fullUrl" : "uin:uuid:cd7f9309-2530-4adf-9b94-e44548361e8a",
    "resource" : {
      "resourceType" : "Patient",
      "id" : "example1",
      "name" : [{
        "text" : "Jane Smith"
      }],
      "generalPractitioner" : [{
        "reference" : "Practitioner/practitioner-1"
      }]
    }
  },
  {
    "fullUrl" : "urn:uuid:4e5aa5f2-dd58-47b0-83c8-6bea38669e67",
    "resource" : {
      "resourceType" : "Practitioner",
      "id" : "practitioner-1",
      "name" : [{
        "text" : "John Smith"
      }]
    }
  },
  {
    "fullUrl" : "urn:uuid:23ac0bc6-0959-4181-8af0-6db5e2ef8176",
    "resource" : {
      "resourceType" : "Observation",
      "id" : "smp-obs-bundle-1",
      "status" : "final",
      "code" : {
        "coding" : [{
          "system" : "http://www.nlm.nih.gov/research/umls/rxnorm",
          "code" : "428759",
          "display" : "metformin 250 MG Oral Tablet"
        }]
      },
      "subject" : {
        "reference" : "Patient/example"
      },
      "effectiveDateTime" : "2024-06-01"
    }
  }]
}