 {
  "resourceType": "Bundle",
  "id": "0d432bc3-c706-4ca8-93a2-17985e1383d5",
  "identifier": {
    "system": "https://tools.ietf.org/html/rfc4122",
    "value": "1b73cdae-f6da-450a-9dd8-edd3f8ff5c16"
  },
  "type": "message",
  "entry": [
    {
      "fullUrl": "urn:uuid:0d432bc3-c706-4ca8-93a2-17985e1383d5",
      "resource": {
        "resourceType": "MessageHeader",
        "id": "7f0ad496-f165-41e8-8751-1b6c2dea8752",
        "eventCoding": {
          "system": "https://fhir.nhs.uk/CodeSystem/message-event",
          "code": "prescription-order",
          "display": "Prescription Order"
        },
        "destination": [
          {
            "endpoint": "urn:nhs-uk:addressing:ods:FCW64",
            "receiver": {
              "identifier": {
                "system": "https://fhir.nhs.uk/Id/ods-organization-code",
                "value": "FCW64"
              }
            }
          }
        ],
        "sender": {
          "reference": "urn:uuid:f36f6202-5b48-49e7-970b-3b4a1761247c",
          "identifier": {
            "system": "https://fhir.nhs.uk/Id/ods-organization-code",
            "value": "694X0"
          },
          "display": "Clark|Jackie"
        },
        "source": {
          "endpoint": "urn:nhs-uk:addressing:ods:694X0"
        },
        "focus": [
          {
            "reference": "urn:uuid:33eee58a-cf85-49a9-9d6c-5b323a0f4fd0",
            "type": "MedicationRequest"
          },
          {
            "reference": "urn:uuid:a1ba87a0-6b23-4618-b742-f455135a981a",
            "type": "MedicationRequest"
          },
          {
            "reference": "urn:uuid:d1a02497-257b-4149-a093-84454c3b5bae",
            "type": "MedicationRequest"
          },
          {
            "reference": "urn:uuid:a1f9ad95-8e2b-4020-a6bd-124f6fe2ef1c",
            "type": "Patient"
          }
        ]
      }
    },
    {
      "fullUrl": "urn:uuid:a1f9ad95-8e2b-4020-a6bd-124f6fe2ef1c",
      "resource": {
        "resourceType": "Patient",
        "id": "a1f9ad95-8e2b-4020-a6bd-124f6fe2ef1c",
        "identifier": [
          {

            "system": "https://fhir.nhs.uk/Id/nhs-number",
            "value": "9657847419"
          }
        ],
        "name": [
          {
            "use": "usual",
            "family": "HOMAN",
            "given": [
              "Amos Lloyd"
            ]
          }
        ],
        "telecom": [
          {
            "system": "phone",
            "value": "07000123123"
          }
        ],
        "gender": "male",
        "birthDate": "1985-03-12",
        "address": [
          {
            "use": "home",
            "line": [
              "1 Dalmatian Way",
              "Broughton",
              "BRIGG"
            ],
            "postalCode": "DN20 0ET"
          }
        ],
        "generalPractitioner": [
          {
            "identifier": {
              "system": "https://fhir.nhs.uk/Id/ods-organization-code",
              "value": "A20047"
            }
          }
        ]
      }
    },
    {
      "fullUrl": "urn:uuid:f36f6202-5b48-49e7-970b-3b4a1761247c",
      "resource": {
        "resourceType": "PractitionerRole",
        "id": "f36f6202-5b48-49e7-970b-3b4a1761247c",
        "identifier": [
          {
            "system": "https://fhir.nhs.uk/Id/sds-role-profile-id",
            "value": "555086415105"
          }
        ],
        "practitioner": {
          "identifier": {
            "system": "https://fhir.hl7.org.uk/Id/gmc-number",
            "value": "1231234"
          },
          "display": "Jackie Clark"
        },
        "organization": {
          "identifier": {
            "system": "https://fhir.nhs.uk/Id/ods-organization-code",
            "value": "RHM"
          },
          "display": "UNIVERSITY HOSPITAL SOUTHAMPTON NHS FOUNDATION TRUST"
        },
        "code": [
          {
            "coding": [
              {
                "system": "https://fhir.hl7.org.uk/CodeSystem/UKCore-SDSJobRoleName",
                "code": "R8000",
                "display": "Clinical Practitioner Access Role"
              }
            ]
          }
        ],
        "location": [
          {
            "reference": "urn:uuid:4bdb71a5-209a-49b9-89ff-5396abc2e582"
          }
        ],
        "healthcareService": [
          {
            "identifier": {
              "use": "usual",
              "system": "https://fhir.nhs.uk/Id/ods-organization-code",
              "value": "694X0"
            },
            "display": "SOUTHAMPTON GENERAL HOSPITAL LABORATORY"
          }
        ],
        "telecom": [
          {
            "system": "phone",
            "value": "02380798431",
            "use": "work"
          }
        ]
      }
    },
    {
      "fullUrl": "urn:uuid:4bdb71a5-209a-49b9-89ff-5396abc2e582",
      "resource": {
        "resourceType": "Location",
        "id": "4bdb71a5-209a-49b9-89ff-5396abc2e582",
        "status": "active",
        "mode": "instance",
        "address": {
          "line": [
            "SOUTHAMPTON GENERAL HOSPITAL",
            "TREMONA ROAD",
            "SOUTHAMPTON"
          ],
          "postalCode": "SO16 6YD"
        }
      }
    },
    {
      "fullUrl": "urn:uuid:33eee58a-cf85-49a9-9d6c-5b323a0f4fd0",
      "resource": {
        "resourceType": "MedicationRequest",
        "id": "33eee58a-cf85-49a9-9d6c-5b323a0f4fd0",
        "extension": [
          {
            "url": "https://fhir.nhs.uk/StructureDefinition/Extension-DM-PrescriptionType",
            "valueCoding": {
              "system": "https://fhir.nhs.uk/CodeSystem/prescription-type",
              "code": "1001",
              "display": "Outpatient Community Prescriber - Medical Prescriber"
            }
          }
        ],
        "identifier": [
          {
            "system": "https://fhir.nhs.uk/Id/prescription-order-item-number",
            "value": "33eee58a-cf85-49a9-9d6c-5b323a0f4fd0"
          }
        ],
        "status": "active",
        "intent": "order",
        "category": [
          {
            "coding": [
              {
                "system": "http://terminology.hl7.org/CodeSystem/medicationrequest-category",
                "code": "outpatient",
                "display": "Outpatient"
              }
            ]
          }
        ],
        "medicationCodeableConcept": {
          "coding": [
            {
              "system": "http://snomed.info/sct",
              "code": "322236009",
              "display": "Paracetamol 500mg tablets"
            }
          ]
        },
        "subject": {
          "reference": "urn:uuid:a1f9ad95-8e2b-4020-a6bd-124f6fe2ef1c"
        },
        "authoredOn": "2021-06-25T14:40:14+01:00",
        "requester": {
          "reference": "urn:uuid:f36f6202-5b48-49e7-970b-3b4a1761247c"
        },
        "groupIdentifier": {
          "extension": [
            {
              "url": "https://fhir.nhs.uk/StructureDefinition/Extension-DM-PrescriptionId",
              "valueIdentifier": {
                "system": "https://fhir.nhs.uk/Id/prescription",
                "value": "e511555b-312d-4307-8caf-999559a20e25"
              }
            }
          ],
          "system": "https://fhir.nhs.uk/Id/prescription-order-number",
          "value": "6FD469-0694X0-02504T"
        },
        "courseOfTherapyType": {
          "coding": [
            {
              "system": "http://terminology.hl7.org/CodeSystem/medicationrequest-course-of-therapy",
              "code": "acute",
              "display": "Short course (acute) therapy"
            }
          ]
        },
        "dosageInstruction": [
          {
            "text": "test"
          }
        ],
        "dispenseRequest": {
          "extension": [
            {
              "url": "https://fhir.nhs.uk/StructureDefinition/Extension-DM-PerformerSiteType",
              "valueCoding": {
                "system": "https://fhir.nhs.uk/CodeSystem/dispensing-site-preference",
                "code": "P1",
                "display": "Other (e.g. Community Pharmacy)"
              }
            }
          ],
          "quantity": {
            "value": 23,
            "unit": "tablet",
            "system": "http://snomed.info/sct",
            "code": "428673006"
          },
          "performer": {
            "identifier": {
              "system": "https://fhir.nhs.uk/Id/ods-organization-code",
              "value": "FCW64"
            }
          }
        },
        "substitution": {
          "allowedBoolean": false
        }
      }
    },
    {
      "fullUrl": "urn:uuid:a1ba87a0-6b23-4618-b742-f455135a981a",
      "resource": {
        "resourceType": "MedicationRequest",
        "id": "a1ba87a0-6b23-4618-b742-f455135a981a",
        "extension": [
          {
            "url": "https://fhir.nhs.uk/StructureDefinition/Extension-DM-PrescriptionType",
            "valueCoding": {
              "system": "https://fhir.nhs.uk/CodeSystem/prescription-type",
              "code": "1001",
              "display": "Outpatient Community Prescriber - Medical Prescriber"
            }
          }
        ],
        "identifier": [
          {
            "system": "https://fhir.nhs.uk/Id/prescription-order-item-number",
            "value": "a1ba87a0-6b23-4618-b742-f455135a981a"
          }
        ],
        "status": "active",
        "intent": "order",
        "category": [
          {
            "coding": [
              {
                "system": "http://terminology.hl7.org/CodeSystem/medicationrequest-category",
                "code": "outpatient",
                "display": "Outpatient"
              }
            ]
          }
        ],
        "medicationCodeableConcept": {
          "coding": [
            {
              "system": "http://snomed.info/sct",
              "code": "35901911000001104",
              "display": "Amoxicillin 125mg/5ml oral suspension sugar free"
            }
          ]
        },
        "subject": {
          "reference": "urn:uuid:a1f9ad95-8e2b-4020-a6bd-124f6fe2ef1c"
        },
        "authoredOn": "2021-06-25T14:40:14+01:00",
        "requester": {
          "reference": "urn:uuid:f36f6202-5b48-49e7-970b-3b4a1761247c"
        },
        "groupIdentifier": {
          "extension": [
            {
              "url": "https://fhir.nhs.uk/StructureDefinition/Extension-DM-PrescriptionId",
              "valueIdentifier": {
                "system": "https://fhir.nhs.uk/Id/prescription",
                "value": "e511555b-312d-4307-8caf-999559a20e25"
              }
            }
          ],
          "system": "https://fhir.nhs.uk/Id/prescription-order-number",
          "value": "6FD469-0694X0-02504T"
        },
        "courseOfTherapyType": {
          "coding": [
            {
              "system": "http://terminology.hl7.org/CodeSystem/medicationrequest-course-of-therapy",
              "code": "acute",
              "display": "Short course (acute) therapy"
            }
          ]
        },
        "dosageInstruction": [
          {
            "text": "test"
          }
        ],
        "dispenseRequest": {
          "extension": [
            {
              "url": "https://fhir.nhs.uk/StructureDefinition/Extension-DM-PerformerSiteType",
              "valueCoding": {
                "system": "https://fhir.nhs.uk/CodeSystem/dispensing-site-preference",
                "code": "P1",
                "display": "Other (e.g. Community Pharmacy)"
              }
            }
          ],
          "quantity": {
            "value": 100,
            "unit": "ml",
            "system": "http://snomed.info/sct",
            "code": "258773002"
          },
          "performer": {
            "identifier": {
              "system": "https://fhir.nhs.uk/Id/ods-organization-code",
              "value": "FCW64"
            }
          }
        },
        "substitution": {
          "allowedBoolean": false
        }
      }
    },
    {
      "fullUrl": "urn:uuid:d1a02497-257b-4149-a093-84454c3b5bae",
      "resource": {
        "resourceType": "MedicationRequest",
        "id": "d1a02497-257b-4149-a093-84454c3b5bae",
        "extension": [
          {
            "url": "https://fhir.nhs.uk/StructureDefinition/Extension-DM-PrescriptionType",
            "valueCoding": {
              "system": "https://fhir.nhs.uk/CodeSystem/prescription-type",
              "code": "1001",
              "display": "Outpatient Community Prescriber - Medical Prescriber"
            }
          }
        ],
        "identifier": [
          {
            "system": "https://fhir.nhs.uk/Id/prescription-order-item-number",
            "value": "d1a02497-257b-4149-a093-84454c3b5bae"
          }
        ],
        "status": "active",
        "intent": "order",
        "category": [
          {
            "coding": [
              {
                "system": "http://terminology.hl7.org/CodeSystem/medicationrequest-category",
                "code": "outpatient",
                "display": "Outpatient"
              }
            ]
          }
        ],
        "medicationCodeableConcept": {
          "coding": [
            {
              "system": "http://snomed.info/sct",
              "code": "329652003",
              "display": "Ibuprofen 200mg tablets"
            }
          ]
        },
        "subject": {
          "reference": "urn:uuid:a1f9ad95-8e2b-4020-a6bd-124f6fe2ef1c"
        },
        "authoredOn": "2021-06-25T14:40:14+01:00",
        "requester": {
          "reference": "urn:uuid:f36f6202-5b48-49e7-970b-3b4a1761247c"
        },
        "groupIdentifier": {
          "extension": [
            {
              "url": "https://fhir.nhs.uk/StructureDefinition/Extension-DM-PrescriptionId",
              "valueIdentifier": {
                "system": "https://fhir.nhs.uk/Id/prescription",
                "value": "e511555b-312d-4307-8caf-999559a20e25"
              }
            }
          ],
          "system": "https://fhir.nhs.uk/Id/prescription-order-number",
          "value": "6FD469-0694X0-02504T"
        },
        "courseOfTherapyType": {
          "coding": [
            {
              "system": "http://terminology.hl7.org/CodeSystem/medicationrequest-course-of-therapy",
              "code": "acute",
              "display": "Short course (acute) therapy"
            }
          ]
        },
        "dosageInstruction": [
          {
            "text": "2 Four Times Daily"
          }
        ],
        "dispenseRequest": {
          "extension": [
            {
              "url": "https://fhir.nhs.uk/StructureDefinition/Extension-DM-PerformerSiteType",
              "valueCoding": {
                "system": "https://fhir.nhs.uk/CodeSystem/dispensing-site-preference",
                "code": "P1",
                "display": "Other (e.g. Community Pharmacy)"
              }
            }
          ],
          "quantity": {
            "value": 24,
            "unit": "tablet",
            "system": "http://snomed.info/sct",
            "code": "428673006"
          },
          "performer": {
            "identifier": {
              "system": "https://fhir.nhs.uk/Id/ods-organization-code",
              "value": "FCW64"
            }
          }
        },
        "substitution": {
          "allowedBoolean": false
        }
      }
    },
    {
      "fullUrl": "urn:uuid:c7d942f2-3c1d-4d93-9ba8-ba57db83cdc0",
      "resource": {
        "resourceType": "MedicationRequest",
        "id": "c7d942f2-3c1d-4d93-9ba8-ba57db83cdc0",
        "extension": [
          {
            "url": "https://fhir.nhs.uk/StructureDefinition/Extension-DM-PrescriptionType",
            "valueCoding": {
              "system": "https://fhir.nhs.uk/CodeSystem/prescription-type",
              "code": "1001",
              "display": "Outpatient Community Prescriber - Medical Prescriber"
            }
          }
        ],
        "identifier": [
          {
            "system": "https://fhir.nhs.uk/Id/prescription-order-item-number",
            "value": "c7d942f2-3c1d-4d93-9ba8-ba57db83cdc0"
          }
        ],
        "status": "active",
        "intent": "order",
        "category": [
          {
            "coding": [
              {
                "system": "http://terminology.hl7.org/CodeSystem/medicationrequest-category",
                "code": "outpatient",
                "display": "Outpatient"
              }
            ]
          }
        ],
        "medicationCodeableConcept": {
          "coding": [
            {
              "system": "http://snomed.info/sct",
              "code": "39695211000001102",
              "display": "Aspirin 300mg dispersible tablets"
            }
          ]
        },
        "subject": {
          "reference": "urn:uuid:a1f9ad95-8e2b-4020-a6bd-124f6fe2ef1c"
        },
        "authoredOn": "2021-06-25T14:40:14+01:00",
        "requester": {
          "reference": "urn:uuid:f36f6202-5b48-49e7-970b-3b4a1761247c"
        },
        "groupIdentifier": {
          "extension": [
            {
              "url": "https://fhir.nhs.uk/StructureDefinition/Extension-DM-PrescriptionId",
              "valueIdentifier": {
                "system": "https://fhir.nhs.uk/Id/prescription",
                "value": "e511555b-312d-4307-8caf-999559a20e25"
              }
            }
          ],
          "system": "https://fhir.nhs.uk/Id/prescription-order-number",
          "value": "6FD469-0694X0-02504T"
        },
        "courseOfTherapyType": {
          "coding": [
            {
              "system": "http://terminology.hl7.org/CodeSystem/medicationrequest-course-of-therapy",
              "code": "acute",
              "display": "Short course (acute) therapy"
            }
          ]
        },
        "dosageInstruction": [
          {
            "text": "Take ONE Four Times Daily"
          }
        ],
        "dispenseRequest": {
          "extension": [
            {
              "url": "https://fhir.nhs.uk/StructureDefinition/Extension-DM-PerformerSiteType",
              "valueCoding": {
                "system": "https://fhir.nhs.uk/CodeSystem/dispensing-site-preference",
                "code": "P1",
                "display": "Other (e.g. Community Pharmacy)"
              }
            }
          ],
          "quantity": {
            "value": 28,
            "unit": "tablet",
            "system": "http://snomed.info/sct",
            "code": "428673006"
          },
          "performer": {
            "identifier": {
              "system": "https://fhir.nhs.uk/Id/ods-organization-code",
              "value": "FCW64"
            }
          }
        },
        "substitution": {
          "allowedBoolean": false
        }
      }
    },
    {
      "fullUrl": "urn:uuid:e5e19e28-b351-4fd4-8133-24608f360d2f",
      "resource": {
        "resourceType": "Provenance",
        "id": "e5e19e28-b351-4fd4-8133-24608f360d2f",
        "target": [
          {
            "reference": "urn:uuid:33eee58a-cf85-49a9-9d6c-5b323a0f4fd0",
            "type": "MedicationRequest"
          },
          {
            "reference": "urn:uuid:a1ba87a0-6b23-4618-b742-f455135a981a",
            "type": "MedicationRequest"
          },
          {
            "reference": "urn:uuid:d1a02497-257b-4149-a093-84454c3b5bae",
            "type": "MedicationRequest"
          }
        ],
        "recorded": "2021-06-25T14:40:17.2561801+01:00",
        "agent": [
          {
            "who": {
              "reference": "urn:uuid:f36f6202-5b48-49e7-970b-3b4a1761247c",
              "type": "PractitionerRole"
            }
          }
        ],
        "signature": [
          {
            "type": [
              {
                "system": "urn:iso-astm:E1762-95:2013",
                "code": "1.2.840.10065.1.12.1.1",
                "display": "Author's Signature"
              }
            ],
            "when": "2021-06-25T14:40:17.2561801+01:00",
            "who": {
              "reference": "urn:uuid:f36f6202-5b48-49e7-970b-3b4a1761247c",
              "type": "PractitionerRole"
            },
            "data": ""
          }
        ]
      }
    }
  ]
}
