{"resourceType": "Bundle", "type": "transaction", "entry": [{"request": {"method": "POST", "url": "AuditEvent"}, "fullUrl": "urn:uuid:5ba1d60f-20c0-4c80-838b-722b03dd4497", "resource": {"resourceType": "AuditEvent", "id": "5ba1d60f-20c0-4c80-838b-722b03dd4497", "meta": {"profile": ["https://shark.kanta.fi/fhir/StructureDefinition/SocialWelfareAuditEvent"]}, "contained": [{"resourceType": "Organization", "id": "REK-PIT-ORG-1", "meta": {"profile": ["https://shark.kanta.fi/fhir/StructureDefinition/SocialWelfareAuditEventOrganization"]}, "extension": [{"url": "https://gen.kanta.fi/fhir/StructureDefinition/extension/RegisterType", "valueCoding": {"system": "urn:oid:1.2.246.537.6.1264.201701", "code": "1", "display": "Sosiaalihuollon asiakasrekisteri"}}], "identifier": [{"system": "urn:ietf:rfc:3986", "value": "urn:oid:1.2.246.10.101010101.10.1"}], "name": "kansa testiorganisaatio 1"}, {"resourceType": "PractitionerRole", "id": "AMM-HLO-ROLE-1", "meta": {"profile": ["https://shark.kanta.fi/fhir/StructureDefinition/SocialWelfarePractitionerRole"]}, "practitioner": {"reference": "#AMM-HLO-PRAC-1"}, "organization": {"reference": "#AMM-HLO-ORG-1"}}, {"resourceType": "Practitioner", "id": "AMM-HLO-PRAC-1", "meta": {"profile": ["https://shark.kanta.fi/fhir/StructureDefinition/SocialWelfarePractitioner"]}, "extension": [{"url": "https://gen.kanta.fi/fhir/StructureDefinition/extension/PractitionerTitle", "valueString": "Ammattihenkil\u00f6n virka- tai teht\u00e4v\u00e4nimike organisaatiossa"}, {"url": "https://gen.kanta.fi/fhir/StructureDefinition/extension/PractitionerAuthenticationMethod", "valueCoding": {"system": "urn:oid:1.2.246.537.5.40128.2006", "code": "1", "display": "Sosiaali- ja terveydenhuollon ammattihenkil\u00f6n varmenne"}}], "identifier": [{"system": "urn:oid:1.2.246.537.26", "value": "1234567"}], "name": [{"family": "SukunimiA", "given": ["Etunimi1", "Etunimi2"]}]}, {"resourceType": "Organization", "id": "AMM-HLO-ORG-1", "meta": {"profile": ["https://shark.kanta.fi/fhir/StructureDefinition/SocialWelfareAuditEventOrganization"]}, "identifier": [{"system": "urn:ietf:rfc:3986", "value": "urn:oid:1.2.246.10.28777751.999.10.1.1"}], "name": "Ammattihenkil\u00f6n palveluyksik\u00f6n nimi"}, {"resourceType": "Device", "id": "DEVICE-1", "meta": {"profile": ["https://gen.kanta.fi/fhir/StructureDefinition/KantaDevice"]}, "identifier": [{"system": "urn:oid:1.2.246.537.6.12.999.2003.34", "value": "345675"}], "deviceName": [{"name": "Tietoj\u00e4rjestelm\u00e4n nimi Valviran tietoj\u00e4rjestelm\u00e4rekisterin sosiaali- ja terveydenhuollon tietoj\u00e4rjestelmist\u00e4 mukaan", "type": "other"}], "version": [{"value": "1.1"}]}, {"resourceType": "Patient", "id": "PAT-1", "meta": {"profile": ["https://shark.kanta.fi/fhir/StructureDefinition/SocialWelfarePatient"]}, "identifier": [{"system": "urn:oid:1.2.246.21", "value": "010280-9075", "use": "official"}], "name": [{"family": "SukunimiAsiakas", "given": ["EtunimiAsiakas1", "EtunimiAsiakas2"]}], "birthDate": "1980-02-01"}, {"resourceType": "Consent", "id": "LUOVUTUSLUPA", "meta": {"profile": ["https://shark.kanta.fi/fhir/StructureDefinition/SocialWelfareConsent"]}, "status": "active", "scope": {"coding": [{"system": "http://terminology.hl7.org/CodeSystem/consentscope", "code": "patient-privacy", "display": "Privacy Consent"}]}, "category": [{"coding": [{"system": "http://loinc.org", "code": "59284-0", "display": "Patient  Consent"}]}], "patient": {"reference": "#PAT-1"}, "dateTime": "2023-01-10", "performer": [{"reference": "#PAT-1", "type": "Patient"}], "policyRule": {"coding": [{"system": "urn:oid:1.2.246.537.5.40193.2013", "code": "1", "display": "S\u00e4hk\u00f6inen suostumus"}]}}], "extension": [{"url": "https://shark.kanta.fi/fhir/StructureDefinition/extension/Consent", "valueReference": {"reference": "#LUOVUTUSLUPA"}}, {"url": "https://shark.kanta.fi/fhir/StructureDefinition/extension/TypeOfDisclosure", "valueCoding": {"system": "urn:oid:1.2.246.537.5.40165.202301", "code": "8", "display": "Ty\u00f6ntekij\u00e4 on luovuttanut asiakastiedot"}}, {"url": "https://gen.kanta.fi/fhir/StructureDefinition/extension/BusinessIdentifier", "valueIdentifier": {"system": "urn:oid:1.2.246.10.12345678", "value": "urn:oid:1.2.246.10.114111.11606"}}], "type": {"system": "http://terminology.hl7.org/CodeSystem/iso-21089-lifecycle", "code": "disclose", "display": "Disclose Record Lifecycle Event"}, "period": {"start": "2023-01-20"}, "recorded": "2020-01-20T09:49:00+02:00", "purposeOfEvent": [{"coding": [{"system": "urn:oid:1.2.246.537.6.3300.202201", "code": "1.2", "display": "Asiakkaan sosiaalihuollon palvelutarpeen arviointi ja palvelujen j\u00e4rjest\u00e4minen ja toteutus"}]}], "agent": [{"role": [{"coding": [{"system": "http://shark.kanta.fi/fishark-cs-auditeventrolecategory", "code": "1", "display": "Asiakastiedot luovuttanut rekisterinpit\u00e4j\u00e4"}]}], "who": {"reference": "#REK-PIT-ORG-1"}, "requestor": true}, {"role": [{"coding": [{"system": "http://shark.kanta.fi/fishark-cs-auditeventrolecategory", "code": "5", "display": "Asiakastiedot luovuttanut ammattihenkil\u00f6"}]}], "who": {"reference": "#AMM-HLO-ROLE-1"}, "requestor": false}, {"role": [{"coding": [{"system": "http://shark.kanta.fi/fishark-cs-auditeventrolecategory", "code": "7", "display": "Asiakastiedot vastaanottanut asiakas"}]}], "who": {"reference": "#PAT-1"}, "requestor": false}], "source": {"observer": {"reference": "#DEVICE-1"}}, "entity": [{"what": {"reference": "#PAT-1"}, "type": {"system": "http://terminology.hl7.org/CodeSystem/audit-entity-type", "code": "1", "display": "Person"}}, {"extension": [{"url": "https://shark.kanta.fi/fhir/StructureDefinition/extension/FunctionCode", "valueCodeableConcept": {"coding": [{"system": "urn:oid:1.2.246.537.6.1221.201601", "code": "24", "display": "Lapsiperheiden palvelut"}]}}, {"url": "https://shark.kanta.fi/fhir/StructureDefinition/extension/SpecificDocumentType", "valueCoding": {"system": "urn:oid:1.2.246.537.6.1506.201701", "code": "1001", "display": "Kasvatus- ja perheneuvonnan yhteenveto"}}, {"url": "https://shark.kanta.fi/fhir/StructureDefinition/extension/CreationTime", "valueDateTime": "2022-10-14"}, {"url": "https://shark.kanta.fi/fhir/StructureDefinition/extension/ReleaseForPatientViewing", "extension": [{"url": "ReleaseForPatientViewing", "valueBoolean": true}, {"url": "ReleaseDateForPatientViewing", "valueDate": "2023-10-14"}]}, {"url": "https://shark.kanta.fi/fhir/StructureDefinition/extension/SpecialContent", "valueBoolean": false}, {"url": "https://shark.kanta.fi/fhir/StructureDefinition/extension/AuthorizationConsent", "valueBoolean": false}, {"url": "https://shark.kanta.fi/fhir/StructureDefinition/extension/RiskOfGivingLogData", "valueBoolean": false}], "what": {"identifier": {"system": "http://organisaationmaarittelemanimiavaruus.fi", "value": "23452345"}}, "type": {"system": "http://terminology.hl7.org/CodeSystem/audit-entity-type", "code": "4", "display": "Other"}}]}}, {"request": {"method": "POST", "url": "Provenance"}, "fullUrl": "urn:uuid:d4bf2c47-99ab-4c1a-99ba-878f58c44823", "resource": {"resourceType": "Provenance", "id": "d4bf2c47-99ab-4c1a-99ba-878f58c44823", "meta": {"profile": ["https://shark.kanta.fi/fhir/StructureDefinition/SocialWelfareAuditEventProvenance"]}, "contained": [{"resourceType": "Organization", "id": "REK-PIT-1", "meta": {"profile": ["https://shark.kanta.fi/fhir/StructureDefinition/SocialWelfareCustodianOrganization"]}, "identifier": [{"system": "urn:oid:1.2.246.537.6.202.2008", "value": "1.2.246.10.101010101.10.1"}], "name": "kansa testiorganisaatio 1"}, {"resourceType": "Practitioner", "id": "AMM-HLO-1", "meta": {"profile": ["https://shark.kanta.fi/fhir/StructureDefinition/SocialWelfarePractitioner"]}, "identifier": [{"system": "urn:oid:1.2.246.537.26", "value": "1234567"}], "name": [{"family": "SukunimiA", "given": ["Etunimi1", "Etunimi2"]}]}, {"resourceType": "Device", "id": "DEVICE-3", "meta": {"profile": ["https://gen.kanta.fi/fhir/StructureDefinition/KantaDevice"]}, "identifier": [{"system": "urn:oid:1.2.246.537.6.12.999.2003.34", "value": "345675"}], "deviceName": [{"name": "jarjestelma1", "type": "other"}], "version": [{"value": "2.01"}]}, {"resourceType": "Patient", "id": "PAT-2", "meta": {"profile": ["https://shark.kanta.fi/fhir/StructureDefinition/SocialWelfarePatient"]}, "identifier": [{"system": "urn:oid:1.2.246.21", "value": "010280-9075", "use": "official"}], "name": [{"family": "SukunimiAsiakas", "given": ["EtunimiAsiakas1", "EtunimiAsiakas2"]}], "birthDate": "1980-02-01"}], "language": "fi", "extension": [{"url": "https://gen.kanta.fi/fhir/StructureDefinition/extension/Status", "valueCoding": {"system": "urn:oid:1.2.246.537.5.40154.2008", "code": "3", "display": "Arkistointivalmis"}}], "target": [{"reference": "urn:uuid:5ba1d60f-20c0-4c80-838b-722b03dd4497", "display": "Sosiaalihuollon luovutusilmoitus"}], "recorded": "2020-01-20T09:49:00+02:00", "agent": [{"role": [{"coding": [{"system": "http://gen.kanta.fi/figen-cs-provenancerolecategory", "code": "1", "display": "Resurssin rekisterinpit\u00e4j\u00e4"}]}], "who": {"reference": "#REK-PIT-1"}}, {"role": [{"coding": [{"system": "http://gen.kanta.fi/figen-cs-provenancerolecategory", "code": "2", "display": "Resurssin tallentanut ammattihenkil\u00f6"}]}], "who": {"reference": "#AMM-HLO-1"}}, {"role": [{"coding": [{"system": "http://gen.kanta.fi/figen-cs-provenancerolecategory", "code": "3", "display": "Asiakas tai potilas, jota resurssi koskee"}]}], "who": {"reference": "#PAT-2"}}, {"role": [{"coding": [{"system": "http://gen.kanta.fi/figen-cs-provenancerolecategory", "code": "4", "display": "Resurssin tuottanut tietoj\u00e4rjestelm\u00e4"}]}], "who": {"reference": "#DEVICE-3"}}]}}], "signature": {"type": [{"system": "urn:iso-astm:E1762-95:2013", "code": "1.2.840.10065.1.12.1.1", "display": "Author's Signature"}], "when": "2025-10-08T10:01:01Z", "who": {"reference": "Practitioner/example"}, "targetFormat": "application/fhir+json", "sigFormat": "application/jose", "data": ""}}