<Bundle xmlns="http://hl7.org/fhir">
  <id value="composition-invariant-with-resolve-example" />
  <meta>
    <lastUpdated value="2019-12-28T02:13:03+10:00" />
  </meta>
  <identifier>
    <system value="urn:ietf:rfc:3986" />
    <value value="urn:uuid:301e425c-2be0-443e-8bb6-3b6499d9a17a" />
  </identifier>
  <type value="document" />
  <timestamp value="2019-12-28T02:13:03+10:00" />
  <entry>
    <fullUrl value="urn:uuid:e4787091-f1b6-42e0-927c-ac8d89984607" />
    <resource>
      <Composition>
        <id value="e4787091-f1b6-42e0-927c-ac8d89984607" />
        <meta>
          <versionId value="1" />
          <lastUpdated value="2019-12-28T02:13:03+10:00" />
          <profile value="http://hl7.org/fhir/StructureDefinition/composition-invariant-with-resolve" />
        </meta>
        <status value="final" />
        <type>
          <coding>
            <system value="http://loinc.org" />
            <code value="11488-4" />
          </coding>
          <text value="Consult note" />
        </type>
        <subject>
          <reference value="Patient/dd78393f-37ca-4738-81d6-d9595b2e5d0f" />
          <display value="Eve Bill" />
        </subject>
        <date value="2019-12-24T12:30:02Z" />
        <author>
          <reference value="Practitioner/3db74777-fd3d-4d3b-92ec-d405977a11a5" />
          <display value="Dr. Adam Dev" />
        </author>
        <title value="Height and weight" />
        <confidentiality value="N" />
        <section>
          <title value="Estimated date of birth" />
          <code>
            <coding>
              <system value="http://snomed.info/sct" />
              <code value="161714006" />
            </coding>
          </code>
          <text>
            <status value="additional" />
            <div xmlns="http://www.w3.org/1999/xhtml">Sample estimated date of birth.</div>
          </text>
          <entry>
            <reference value="urn:uuid:c1829bfb-fe3b-4cde-bed2-761624e24fba" />
          </entry>
          <entry>
            <reference value="urn:uuid:dd74dcc9-5f97-4831-ad5b-acb2ae069823" />
          </entry>
        </section>
      </Composition>
    </resource>
  </entry>
  <entry>
    <fullUrl value="urn:uuid:dd78393f-37ca-4738-81d6-d9595b2e5d0f" />
    <resource>
      <Patient>
        <id value="dd78393f-37ca-4738-81d6-d9595b2e5d0f" />
        <meta>
          <versionId value="1" />
          <lastUpdated value="2018-12-28T02:13:03+10:00" />
        </meta>
        <identifier>
          <type>
            <text value="IHI" />
          </type>
          <system value="http://ns.electronichealth.net.au/id/hi/ihi/1.0" />
          <value value="8003608000024083" />
        </identifier>
        <identifier>
          <type>
            <text value="Medical Record Number" />
          </type>
          <system value="http://ns.electronichealth.net.au/id/hpio-scoped/medicalrecord/1.0/8003620000000000/02134000" />
          <value value="02134000" />
          <assigner>
            <display value="Blacktown Hospital" />
          </assigner>
        </identifier>
        <active value="true" />
        <name>
          <text value="Eve Bill" />
          <family value="Bill" />
          <given value="Eve" />
        </name>
        <gender value="female" />
      </Patient>
    </resource>
  </entry>
  <entry>
    <fullUrl value="urn:uuid:3db74777-fd3d-4d3b-92ec-d405977a11a5" />
    <resource>
      <Practitioner>
        <id value="3db74777-fd3d-4d3b-92ec-d405977a11a5" />
        <identifier>
          <type>
            <text value="HPI-I" />
          </type>
          <system value="http://ns.electronichealth.net.au/id/hi/hpii/1.0" />
          <value value="8003610833334085" />
        </identifier>
        <active value="true" />
        <name>
          <family value="Dev" />
          <given value="Adam" />
          <prefix value="Dr" />
        </name>
      </Practitioner>
    </resource>
  </entry>
  <entry>
    <fullUrl value="urn:uuid:c1829bfb-fe3b-4cde-bed2-761624e24fba" />
    <resource>
      <Observation>
        <id value="c1829bfb-fe3b-4cde-bed2-761624e24fba" />
        <meta>
          <versionId value="1" />
          <lastUpdated value="2019-12-28T02:13:03+10:00" />
          <profile value="http://hl7.org/fhir/StructureDefinition/bodyweight" />
        </meta>
        <status value="final" />
        <category>
          <coding>
            <system value="http://terminology.hl7.org/CodeSystem/observation-category" />
            <code value="vital-signs" />
          </coding>
        </category>
        <code>
          <coding>
            <system value="http://loinc.org" />
            <code value="29463-7" />
          </coding>
        </code>
        <subject>
          <reference value="Patient/dd78393f-37ca-4738-81d6-d9595b2e5d0f" />
          <display value="Eve Bill" />
        </subject>
        <effectiveDateTime value="2019-12-24" />
        <valueQuantity>
          <value value="55.3" />
          <unit value="kg" />
          <system value="http://unitsofmeasure.org" />
          <code value="kg" />
        </valueQuantity>
      </Observation>
    </resource>
  </entry>
  <entry>
    <fullUrl value="urn:uuid:dd74dcc9-5f97-4831-ad5b-acb2ae069823" />
    <resource>
      <Observation>
        <id value="dd74dcc9-5f97-4831-ad5b-acb2ae069823" />
        <meta>
          <versionId value="1" />
          <lastUpdated value="2019-12-28T02:13:03+10:00" />
          <profile value="http://hl7.org/fhir/StructureDefinition/bodyheight" />
        </meta>
        <status value="final" />
        <category>
          <coding>
            <system value="http://terminology.hl7.org/CodeSystem/observation-category" />
            <code value="vital-signs" />
          </coding>
        </category>
        <code>
          <coding>
            <system value="http://loinc.org" />
            <code value="8302-2" />
          </coding>
        </code>
        <subject>
          <reference value="Patient/dd78393f-37ca-4738-81d6-d9595b2e5d0f" />
          <display value="Eve Bill" />
        </subject>
        <effectiveDateTime value="2019-12-24" />
        <valueQuantity>
          <value value="155.3" />
          <unit value="cm" />
          <system value="http://unitsofmeasure.org" />
          <code value="cm" />
        </valueQuantity>
      </Observation>
    </resource>
  </entry>
</Bundle>